system_id,m_epoch,r_acc_x,r_acc_y,r_acc_z,gyr_x,gyr_y,gyr_z,mag_x,mag_y,mag_z,q_w,q_i,q_j,q_k,roll,pitch,yaw
1,1626619720607,2.34962,-0.0864477,9.59959,0.00323355,-0.0242099,-0.00149161,-0.985151,0.179611,0.0581005,0.756059,-0.0797389,-0.0880535,-0.643632,-0.426069,-13.6383,-80.7645
1,1626619720807,2.26987,-0.062107,9.5487,0.0132009,0.016734,-0.0160679,-0.989804,0.176833,0.0502885,0.755829,-0.0793612,-0.0882737,-0.643919,-0.370534,-13.6296,-80.8135
1,1626619721008,2.29607,-0.0897876,9.5375,0.0125244,-0.00610054,0.000995398,-0.98948,0.189422,0.0552871,0.755529,-0.0789417,-0.0886091,-0.644276,-0.30115,-13.6278,-80.8757
1,1626619721208,2.29918,-0.0824815,9.55726,-0.010471,-0.00510812,-0.000910461,-0.992922,0.177527,0.0622673,0.755282,-0.0785131,-0.0885175,-0.644632,-0.26388,-13.5878,-80.93
1,1626619721408,2.29874,-0.0955393,9.55257,0.016892,-0.000609457,-0.00672788,-0.992089,0.192189,0.0599626,0.754952,-0.0779932,-0.0887143,-0.645053,-0.19518,-13.5663,-80.9998
1,1626619721609,2.32268,-0.0605035,9.539,0.00380576,0.0130236,-0.0153586,-0.992557,0.182327,0.0598711,0.754634,-0.0776989,-0.0886158,-0.645475,-0.169127,-13.5356,-81.0639
1,1626619721809,2.32652,-0.0815529,9.51264,-0.00581294,-0.0091657,-0.0039801,-0.984931,0.187138,0.0606112,0.754351,-0.0774016,-0.0886227,-0.64584,-0.135757,-13.514,-81.1211
1,1626619722009,2.31265,-0.0734093,9.54383,0.013192,0.00904352,-0.00118762,-0.985309,0.184935,0.0654725,0.754005,-0.0771667,-0.0886309,-0.646271,-0.106588,-13.4972,-81.1883
1,1626619722210,2.34827,-0.0996164,9.53372,0.00728369,0.000944734,-0.00510216,-0.987368,0.181985,0.0554499,0.753846,-0.0770622,-0.0885802,-0.646475,-0.0975852,-13.4849,-81.2192
1,1626619722410,2.30696,-0.0496014,9.54556,-0.000137091,0.0165328,-0.0101432,-0.984566,0.191938,0.0582149,0.753475,-0.0769028,-0.0884831,-0.646941,-0.0825936,-13.4645,-81.2897
1,1626619722611,2.31616,-0.0729329,9.54045,0.00898093,-0.00276864,-0.0112697,-0.990093,0.182287,0.0601025,0.75324,-0.0766408,-0.0883861,-0.647259,-0.0612915,-13.4363,-81.3377
1,1626619722811,2.30196,-0.0765802,9.53703,-0.00540912,0.011307,0.001432,-0.989949,0.17956,0.0551955,0.752973,-0.0763443,-0.0883805,-0.647605,-0.0294026,-13.4136,-81.3918
1,1626619723011,2.32186,-0.0836155,9.56085,0.00439733,0.00655204,-0.01131,-0.984435,0.191807,0.0557729,0.752727,-0.07605,-0.088283,-0.647939,-0.00505939,-13.3829,-81.4424
1,1626619723212,2.31724,-0.0840187,9.55739,0.0168771,-0.0102863,0.00478774,-0.984917,0.184542,0.0581463,0.752403,-0.0760284,-0.08812,-0.648339,-0.00853152,-13.367,-81.5014
1,1626619723412,2.30007,-0.0706624,9.5591,0.0126407,-0.00995845,-0.00739843,-0.989611,0.189553,0.0577291,0.752057,-0.0759286,-0.0881821,-0.648744,0.0123527,-13.3649,-81.5652
1,1626619723613,2.31459,-0.0666555,9.53078,0.00688583,0.00429005,-0.00261664,-0.985296,0.182338,0.0630075,0.751651,-0.0758852,-0.0881477,-0.649224,0.0221928,-13.3586,-81.6389
1,1626619723813,2.30593,-0.0622246,9.55617,0.028947,-0.0116959,-0.0159502,-0.98244,0.181905,0.0559128,0.751359,-0.075803,-0.0883403,-0.649545,0.0501387,-13.3692,-81.6923
1,1626619724013,2.3083,-0.0584252,9.54074,-0.00773519,-0.00529438,-0.00292808,-0.989597,0.186956,0.0552642,0.751041,-0.0757359,-0.0883585,-0.649919,0.064201,-13.3657,-81.7505
1,1626619724214,2.3094,-0.0863591,9.5675,0.0157565,-0.0131607,-0.000116229,-0.990224,0.182418,0.0625446,0.75067,-0.0754755,-0.0885511,-0.650351,0.109786,-13.3628,-81.8216
1,1626619724414,2.30799,-0.0650177,9.57122,0.0127926,0.00777096,0.0015676,-0.992516,0.174538,0.0524762,0.75048,-0.0755673,-0.0884204,-0.650577,0.0956984,-13.3583,-81.854
1,1626619724614,2.27761,-0.0566416,9.52258,0.0177532,-0.021781,-0.0117347,-0.990052,0.174498,0.0527076,0.750071,-0.0755674,-0.0885194,-0.651036,0.1117,-13.3669,-81.9268
1,1626619724815,2.31689,-0.0685697,9.53517,0.0125691,0.0127226,0.00344366,-0.984435,0.191807,0.0557729,0.749659,-0.0754571,-0.0886148,-0.651509,0.137368,-13.3668,-82.0022
1,1626619725015,2.34131,-0.0843637,9.5326,-0.00478029,0.00506938,-0.0165269,-0.987237,0.181855,0.0530078,0.749259,-0.0752813,-0.088585,-0.651994,0.15919,-13.3508,-82.0772
1,1626619725216,2.33532,-0.0912003,9.5311,-0.0127643,-0.014241,-0.00628978,-0.98712,0.18432,0.0530307,0.748919,-0.0752331,-0.0885383,-0.652396,0.167057,-13.343,-82.1389
1,1626619725416,2.30549,-0.0706205,9.54227,0.00752807,0.00271797,-0.0141859,-0.987147,0.189513,0.0579606,0.748515,-0.0751616,-0.088599,-0.65286,0.186449,-13.3427,-82.2121
1,1626619725616,2.30311,-0.0597814,9.56091,-0.00038594,-0.00931174,-0.0174895,-0.992323,0.187258,0.0599168,0.748246,-0.0750305,-0.0884745,-0.6532,0.194339,-13.3219,-82.263
1,1626619725817,2.34697,-0.0940055,9.57082,0.00420064,-0.00191331,0.00444651,-0.987381,0.184582,0.0579148,0.747891,-0.0750247,-0.0882801,-0.653634,0.187532,-13.3044,-82.3268
1,1626619726017,2.26567,-0.0538627,9.54276,-0.00822097,0.00752211,0.00290424,-0.984566,0.191938,0.0582149,0.747596,-0.0748955,-0.0881478,-0.654004,0.195142,-13.283,-82.3821
1,1626619726218,2.28536,-0.0780414,9.5615,0.0113219,0.0175238,0.00268817,-0.987251,0.184451,0.0554727,0.747119,-0.0749559,-0.0882665,-0.654526,0.208623,-13.2978,-82.4654
1,1626619726418,2.31113,-0.0707406,9.56451,-0.000560284,0.000210106,-0.00304282,-0.984656,0.18428,0.0532621,0.746811,-0.0746461,-0.0881247,-0.654931,0.231825,-13.2618,-82.5266
1,1626619726618,2.30778,-0.07913,9.53567,0.012292,0.0135094,-0.0134543,-0.990093,0.182287,0.0601025,0.746566,-0.0746448,-0.088188,-0.655202,0.241781,-13.2671,-82.5698
1,1626619726819,2.30773,-0.0699527,9.54569,-0.0072524,0.00617504,-0.00819266,-0.992061,0.186996,0.0550327,0.74632,-0.0743767,-0.0879278,-0.655547,0.250957,-13.2241,-82.6195
1,1626619727019,2.30993,-0.0533577,9.56294,0.0106215,0.0157043,-0.0159532,-0.990093,0.182287,0.0601025,0.746022,-0.0745057,-0.0879442,-0.655871,0.246873,-13.2352,-82.6698
1,1626619727219,2.29183,-0.0635071,9.54741,0.0212312,0.00246316,0.00181496,-0.989976,0.184753,0.0601254,0.745846,-0.0744383,-0.087983,-0.656073,0.259423,-13.2333,-82.7021
1,1626619727420,2.3117,-0.0583113,9.55233,0.00175834,-0.000880659,6.10948e-05,-0.984917,0.184542,0.0581463,0.74548,-0.0742414,-0.0881076,-0.656494,0.293896,-13.229,-82.7705
1,1626619727620,2.31503,-0.0668329,9.54525,0.001508,0.00140369,0.019297,-0.990354,0.182549,0.0649866,0.745265,-0.0741541,-0.0878988,-0.656776,0.290175,-13.2041,-82.8108
1,1626619727821,2.28754,-0.0782249,9.56675,-0.000609458,-0.00405908,0.00261515,-0.989976,0.184753,0.0601254,0.745018,-0.0741153,-0.0878378,-0.657069,0.294051,-13.1958,-82.8554
1,1626619728021,2.27875,-0.0569755,9.55879,0.00979006,-0.016284,0.00329167,-0.982584,0.184633,0.0608198,0.744826,-0.0739879,-0.087794,-0.657307,0.30595,-13.1822,-82.892
1,1626619728221,2.31959,-0.0644953,9.54712,0.000844896,-0.00997782,-0.0124455,-0.987498,0.182116,0.0578919,0.744471,-0.0740379,-0.0879162,-0.657687,0.318059,-13.1964,-82.9534
1,1626619728422,2.32675,-0.0908085,9.54217,-0.000298023,0.00521392,-0.00312179,-0.989597,0.186956,0.0552642,0.744124,-0.0740043,-0.0879712,-0.658076,0.332309,-13.1984,-83.0151
1,1626619728622,2.30916,-0.0740853,9.56839,0.00853986,-0.000968576,0.00797063,-0.999922,0.177254,0.0542468,0.743864,-0.073861,-0.0879455,-0.658389,0.348359,-13.1851,-83.0639
1,1626619728822,2.29146,-0.0696638,9.54021,-0.0214368,0.000874698,-0.0032559,-0.984917,0.184542,0.0581463,0.743594,-0.0736808,-0.0879161,-0.658718,0.367576,-13.1686,-83.1151
1,1626619729023,2.34375,-0.0861224,9.54997,0.0196934,0.00207424,-0.00425279,-0.984787,0.184411,0.0557042,0.743342,-0.0736309,-0.0879165,-0.659008,0.377158,-13.1647,-83.1606
1,1626619729223,2.29595,-0.0679287,9.53058,-0.00395477,0.00133216,-0.0054732,-0.980093,0.1794,0.0561214,0.742865,-0.0736106,-0.0878598,-0.659555,0.384305,-13.158,-83.2451
1,1626619729424,2.31018,-0.100692,9.57057,-0.0143662,0.00729114,-0.000420213,-0.987485,0.17952,0.055427,0.742476,-0.073891,-0.0878364,-0.659966,0.365634,-13.1772,-83.3082
1,1626619729624,2.31318,-0.0556479,9.52583,0.00929832,0.00258088,-0.00173748,-0.98489,0.179349,0.0532164,0.742208,-0.0739919,-0.0877359,-0.660268,0.354459,-13.1762,-83.3535
1,1626619729824,2.32171,-0.0607157,9.57463,-0.00133514,-0.00026226,0.00414848,-0.989962,0.182156,0.0576605,0.741941,-0.0742882,-0.0878138,-0.660525,0.339669,-13.2055,-83.3945
1,1626619730025,2.3116,-0.0730431,9.53179,0.00159889,0.0078246,-0.00412911,-0.984944,0.189735,0.0630762,0.741594,-0.0742743,-0.0876818,-0.660934,0.337858,-13.1929,-83.4561
1,1626619730225,2.29308,-0.0493545,9.56128,0.00272691,-0.00150651,-0.00390112,-0.980485,0.179793,0.0634475,0.741389,-0.074355,-0.0875514,-0.661172,0.324896,-13.1877,-83.4908
1,1626619730425,2.34389,-0.0816541,9.56685,0.00715852,0.0147715,-0.00405312,-0.985062,0.187269,0.0630533,0.740889,-0.0744937,-0.0877468,-0.661691,0.337797,-13.2149,-83.5755
1,1626619730626,2.28768,-0.0348852,9.54234,-0.00470132,0.000740588,-0.0188097,-0.985034,0.182076,0.0581234,0.740594,-0.0744315,-0.0875077,-0.662059,0.330937,-13.1895,-83.629
1,1626619730827,2.29715,-0.0655006,9.54939,0.00775456,-0.000298023,-0.00286996,-0.992323,0.187258,0.0599168,0.740119,-0.0743706,-0.0874825,-0.662601,0.344,-13.1824,-83.7135
1,1626619731027,2.31369,-0.110036,9.55381,0.00441521,0.0101596,-0.00236481,-0.982818,0.179702,0.060774,0.739801,-0.0745154,-0.0875726,-0.662928,0.344606,-13.2011,-83.7663
1,1626619731228,2.30867,-0.0686008,9.55773,-0.0132084,0.00257194,-0.0130549,-0.98235,0.189564,0.0608656,0.739494,-0.0748528,-0.0876648,-0.66322,0.328176,-13.2348,-83.8131
1,1626619731428,2.30831,-0.0668177,9.54467,0.0089407,0.000560284,0.00614077,-0.995035,0.184964,0.0621046,0.739131,-0.0749168,-0.0878716,-0.66359,0.345816,-13.2574,-83.875
1,1626619731629,2.31342,-0.0776661,9.52935,0.0141829,-0.00741184,-0.00526309,-0.989872,0.189815,0.0626132,0.738758,-0.0750537,-0.0877757,-0.664003,0.333979,-13.2595,-83.9379
1,1626619731829,2.29708,-0.0555709,9.53584,-0.00903308,0.00184029,-0.00194162,-0.985165,0.182207,0.0605654,0.73837,-0.0752642,-0.0878571,-0.664399,0.329597,-13.2825,-84.0013
1,1626619732030,2.30118,-0.0515895,9.55082,0.0118226,0.0136465,0.00377297,-0.995021,0.182367,0.0596396,0.738144,-0.0753745,-0.0876012,-0.664672,0.304797,-13.269,-84.0392
1,1626619732230,2.32273,-0.0577929,9.53222,-0.0154793,0.00182092,-0.0101134,-0.989859,0.187218,0.0601483,0.737612,-0.075622,-0.087522,-0.665244,0.287733,-13.2811,-84.1274
1,1626619732430,2.31902,-0.106142,9.54755,0.00656247,0.00828654,0.00611991,-0.997863,0.180204,0.0642694,0.737258,-0.0754956,-0.0875266,-0.66565,0.306381,-13.2716,-84.1917
1,1626619732631,2.30824,-0.06026,9.5509,-0.00410378,0.00692904,0.00466704,-0.990183,0.174629,0.0551497,0.736938,-0.0755778,-0.0877931,-0.66596,0.326229,-13.3006,-84.2453
1,1626619732831,2.27753,-0.0642659,9.53424,-0.00685304,-0.00800639,0.000649691,-0.99021,0.179822,0.0600796,0.736712,-0.0758392,-0.0877216,-0.66619,0.302359,-13.3146,-84.2798
1,1626619733032,2.33058,-0.0782511,9.53631,0.00428408,-0.0013873,0.00868291,-0.992048,0.1844,0.0525678,0.736366,-0.0760104,-0.0875748,-0.666573,0.283028,-13.3151,-84.3371
1,1626619733232,2.31283,-0.0970173,9.52427,-0.00118762,0.00714809,-0.00406504,-0.992647,0.174669,0.0549183,0.735987,-0.0760449,-0.0874266,-0.667006,0.276259,-13.305,-84.4026
1,1626619733432,2.33246,-0.0775476,9.53296,-0.0209704,0.0188813,-0.00154972,-0.982818,0.179702,0.060774,0.735509,-0.0762341,-0.0872438,-0.667535,0.255221,-13.3038,-84.4825
1,1626619733633,2.30886,-0.0844505,9.55351,0.0130102,-0.00213981,-0.00870675,-0.982323,0.184371,0.0559357,0.735161,-0.0763725,-0.087226,-0.667905,0.248771,-13.3129,-84.5402
1,1626619733833,2.33565,-0.0944537,9.56487,0.00989586,-0.016284,-0.0189871,-0.986741,0.186524,0.0481694,0.73483,-0.076424,-0.0871185,-0.668277,0.242644,-13.3076,-84.5969
1,1626619734033,2.31134,-0.0898548,9.54442,0.00349134,-0.002186,0.00115037,-0.995021,0.182367,0.0596396,0.734458,-0.0767049,-0.0869878,-0.668671,0.215459,-13.3182,-84.6564
1,1626619734234,2.32517,-0.0882134,9.56625,0.018464,0.00746697,-0.000162423,-0.992075,0.189593,0.0574977,0.734224,-0.0767517,-0.0868372,-0.668943,0.204438,-13.3089,-84.6964
1,1626619734434,2.30015,-0.0700453,9.53452,0.0167653,0.00507534,-0.00965148,-0.985034,0.182076,0.0581234,0.733984,-0.07687,-0.0869232,-0.66918,0.205609,-13.3254,-84.7355
1,1626619734635,2.30278,-0.0782288,9.5501,0.0106618,0.0176042,-0.0162289,-0.979625,0.189262,0.0562129,0.73363,-0.077039,-0.087104,-0.669526,0.212024,-13.3538,-84.7932
1,1626619734835,2.30157,-0.0501091,9.53241,-0.0020355,-0.00537932,-0.0178427,-0.987093,0.179127,0.0481008,0.733294,-0.0771555,-0.0871255,-0.669877,0.210328,-13.3646,-84.8491
1,1626619735036,2.30197,-0.0660245,9.54849,-0.00498146,-0.000661612,-0.0143662,-1.00241,0.182487,0.0589452,0.73314,-0.0773978,-0.0868702,-0.670051,0.172429,-13.3617,-84.8715
1,1626619735236,2.32514,-0.0981951,9.55335,-0.0199765,0.0218257,-0.0150085,-0.987016,0.189382,0.0555185,0.732856,-0.0774739,-0.0867794,-0.670365,0.164495,-13.3598,-84.9195
1,1626619735436,2.30649,-0.0930551,9.55164,-0.0175029,-0.00165701,0.00819266,-0.98467,0.186876,0.0557271,0.732547,-0.0777447,-0.0869167,-0.670653,0.157767,-13.3925,-84.9673
1,1626619735637,2.31214,-0.0829613,9.55548,0.00918955,0.000521541,-0.00986606,-0.992192,0.187127,0.0574748,0.732247,-0.077958,-0.0869061,-0.670958,0.144398,-13.4082,-85.015
1,1626619735837,2.31168,-0.0882555,9.52218,0.0119537,-0.0134856,0.00160784,-0.984642,0.181684,0.0507972,0.731992,-0.078143,-0.0868696,-0.671219,0.130586,-13.4194,-85.0555
1,1626619736038,2.32012,-0.0857507,9.54828,-0.0121385,-0.0120118,-0.0226468,-0.985048,0.184673,0.0605883,0.731624,-0.0784465,-0.0865046,-0.671632,0.083147,-13.412,-85.1137
1,1626619736238,2.30092,-0.0437424,9.58006,-0.00634939,-0.0116825,0.0106156,-0.997003,0.189673,0.0570347,0.731346,-0.0785012,-0.0864844,-0.671931,0.0824588,-13.4145,-85.1608
1,1626619736438,2.306,-0.0956202,9.55985,0.00320524,-8.9407e-05,-0.0255764,-0.987602,0.177055,0.0554041,0.731084,-0.0785602,-0.0864801,-0.672209,0.0823018,-13.4188,-85.2048
1,1626619736639,2.32491,-0.0767158,9.52803,0.00743419,-0.00528693,-0.0128284,-0.982557,0.17944,0.0558899,0.730805,-0.0788583,-0.0863785,-0.672491,0.0540455,-13.4334,-85.2473
1,1626619736839,2.28719,-0.0596768,9.53332,0.0107825,-0.0212044,-0.0133157,-0.992089,0.192189,0.0599626,0.730474,-0.0790087,-0.0863024,-0.672842,0.0417135,-13.4387,-85.3015
1,1626619737040,2.29792,-0.0792701,9.54321,0.0134736,-0.00728369,0.00960082,-0.989832,0.182025,0.0552184,0.730189,-0.0792342,-0.0863441,-0.67312,0.0311004,-13.4598,-85.346
1,1626619737240,2.30966,-0.0630186,9.55768,0.00600517,-0.00336617,0.00499785,-0.985413,0.179873,0.0629846,0.729889,-0.0795287,-0.0863371,-0.673412,0.0109878,-13.4823,-85.3919
1,1626619737440,2.28256,-0.047758,9.51912,-0.000922382,0.00836551,-0.00650138,-0.984888,0.184714,0.0630447,0.729775,-0.0798097,-0.0860837,-0.673534,-0.0309787,-13.4828,-85.4062
1,1626619737641,2.32093,-0.094898,9.53673,0.00747591,0.0063166,-0.00498742,-0.982411,0.182078,0.0608116,0.729525,-0.0800649,-0.08604,-0.67378,-0.0515386,-13.499,-85.4443
1,1626619737841,2.31178,-0.0447105,9.55888,-0.0225231,0.00401884,-0.00631064,-0.984496,0.184321,0.05572,0.729279,-0.0802663,-0.0859637,-0.674032,-0.0700349,-13.5084,-85.4827
1,1626619738042,2.30886,-0.0679697,9.56824,0.00568181,0.0149712,0.00642985,-0.979191,0.186444,0.0513226,0.729067,-0.0804447,-0.0859657,-0.674241,-0.0810774,-13.5225,-85.5157
1,1626619738242,2.33368,-0.0869415,9.56283,0.00842065,0.0115931,-0.007011,-0.987104,0.187088,0.0603946,0.728844,-0.0804665,-0.085875,-0.674491,-0.0855216,-13.5166,-85.5538
1,1626619738442,2.29952,-0.070783,9.53585,0.00529289,-0.00337511,0.0109792,-0.986856,0.189422,0.0579759,0.728567,-0.0808698,-0.0856831,-0.674766,-0.130003,-13.532,-85.5935
1,1626619738643,2.30248,-0.0598448,9.56223,-0.0050202,-0.0132054,0.00430495,-0.982307,0.187139,0.063299,0.728289,-0.0809207,-0.0855479,-0.675076,-0.139352,-13.5246,-85.6405
1,1626619738843,2.30922,-0.0211589,9.5317,0.00775009,0.021255,-0.00737011,-0.988941,0.191665,0.0528843,0.728035,-0.0811409,-0.085638,-0.675313,-0.146275,-13.5495,-85.6795
1,1626619739044,2.32923,-0.092477,9.56227,0.0133857,-0.0108674,-0.0156164,-0.992251,0.179642,0.0574216,0.72778,-0.0812906,-0.0855614,-0.675579,-0.160094,-13.5549,-85.7205
1,1626619739244,2.30208,-0.104468,9.5405,-0.0182152,0.011836,-0.00939369,-0.992395,0.182369,0.0623276,0.727525,-0.0814389,-0.0852096,-0.675881,-0.195335,-13.5368,-85.7619
1,1626619739445,2.29852,-0.0641764,9.55085,0.000739098,0.00463277,-0.00729263,-0.987746,0.179782,0.0603111,0.727219,-0.0813733,-0.0849385,-0.676252,-0.204642,-13.5088,-85.8162
1,1626619739645,2.30247,-0.0764746,9.55388,0.0102267,0.00751465,0.00753999,-0.982494,0.192291,0.0657726,0.726822,-0.0814085,-0.0846472,-0.67671,-0.222471,-13.4871,-85.884
1,1626619739845,2.31396,-0.0761972,9.52369,0.00623167,0.0231087,0.0047937,-0.985165,0.182207,0.0605654,0.726492,-0.0815599,-0.0846656,-0.677045,-0.227459,-13.5007,-85.9377
1,1626619740046,2.33249,-0.0811685,9.55321,0.00385791,-0.00298768,0.0156134,-0.990237,0.185015,0.0650095,0.72615,-0.0816844,-0.0847062,-0.677391,-0.228156,-13.514,-85.9937
1,1626619740246,2.30744,-0.0711793,9.54324,0.00167638,-0.00757426,-0.00349879,-0.985192,0.1874,0.0654953,0.725844,-0.0817093,-0.0847637,-0.677709,-0.21959,-13.5209,-86.0455
1,1626619740446,2.31166,-0.0821968,9.54535,0.00474453,0.011383,-0.0130713,-0.982206,0.186836,0.0559586,0.725495,-0.0816482,-0.0844536,-0.678129,-0.231552,-13.4901,-86.1071
1,1626619740647,2.31798,-0.0697626,9.55492,-0.00228435,0.00180453,0.00212342,-0.990588,0.177618,0.0649409,0.725221,-0.0818,-0.0843072,-0.678421,-0.250686,-13.4898,-86.1511
1,1626619740847,2.31216,-0.069786,9.56015,7.59959e-05,-0.00378191,-0.00882149,-0.988007,0.180044,0.0651952,0.724873,-0.0819857,-0.0842148,-0.678782,-0.267008,-13.4968,-86.207
1,1626619741048,2.3083,-0.082098,9.52895,0.00823885,0.0164688,-0.01892,-0.992454,0.187389,0.0623589,0.724651,-0.0820394,-0.0842515,-0.679008,-0.264276,-13.5042,-86.2438
1,1626619741248,2.30445,-0.0881549,9.59012,0.00882596,-0.000932813,-0.0202298,-0.992557,0.182327,0.0598711,0.724352,-0.082116,-0.0841407,-0.679332,-0.273583,-13.501,-86.2936
1,1626619741448,2.31,-0.107588,9.54248,-0.00528544,-0.0053972,-0.0185221,-0.989801,0.182198,0.0601174,0.723919,-0.0823057,-0.0839645,-0.679792,-0.295125,-13.5014,-86.3639
1,1626619741649,2.27355,-0.0551103,9.5447,0.0028044,0.0147671,-0.000835955,-0.984874,0.182118,0.0605802,0.723705,-0.0823481,-0.0839351,-0.680018,-0.296797,-13.5023,-86.3996
1,1626619741849,2.29938,-0.0656427,9.55943,-0.00206679,0.00381023,-0.00339448,-0.985019,0.184845,0.0654862,0.723474,-0.0824764,-0.0837145,-0.680276,-0.320593,-13.494,-86.4369
1,1626619742050,2.30756,-0.0511621,9.54011,-0.000403821,0.00429601,-0.0134796,-0.982397,0.179482,0.0583472,0.723214,-0.0826205,-0.0838001,-0.680524,-0.321077,-13.5127,-86.4781
1,1626619742250,2.33675,-0.0767646,9.52949,-0.00219196,0.00940561,0.00224113,-0.985136,0.18238,0.0654634,0.722836,-0.0826199,-0.0837706,-0.68093,-0.3157,-13.5104,-86.5428
1,1626619742450,2.30505,-0.0459066,9.54983,-0.00771582,0.0198081,-0.00728965,-0.979742,0.186796,0.05619,0.72247,-0.0828341,-0.083648,-0.681307,-0.336504,-13.5172,-86.6009
1,1626619742651,2.3121,-0.0620682,9.54036,-0.00165105,-0.0005126,-0.00648946,-0.985089,0.192462,0.0679832,0.722207,-0.0826133,-0.0836669,-0.68161,-0.31062,-13.5014,-86.6503
1,1626619742851,2.33798,-0.0842771,9.52774,0.00433028,0.00450611,-0.00748187,-0.982728,0.18736,0.0657268,0.721799,-0.0825787,-0.0837544,-0.682035,-0.292485,-13.5062,-86.7203
1,1626619743052,2.32235,-0.087166,9.57101,-0.0113234,0.00352263,-0.00968724,-0.987629,0.182247,0.060334,0.721412,-0.0826248,-0.0837038,-0.682445,-0.292656,-13.5058,-86.7855
1,1626619743252,2.31462,-0.0865558,9.53866,-0.00345558,0.00321716,-0.00327379,-0.980395,0.187451,0.0684003,0.721069,-0.0828266,-0.0836608,-0.682789,-0.30654,-13.5183,-86.8398
1,1626619743453,2.31255,-0.0759837,9.54709,0.000263751,0.00429601,-0.0144184,-0.984991,0.179653,0.0605574,0.720736,-0.0828814,-0.0836946,-0.683129,-0.30189,-13.5257,-86.8953
1,1626619743653,2.31295,-0.0702021,9.54225,-5.21541e-05,0.0147492,-0.000248849,-0.98301,0.172349,0.0631617,0.720393,-0.0830031,-0.083485,-0.683502,-0.322067,-13.5179,-86.9514
1,1626619743853,2.27661,-0.0482625,9.5297,0.00347644,0.00689179,0.0125647,-0.992512,0.179904,0.0623047,0.720129,-0.0830791,-0.0833912,-0.683782,-0.33073,-13.5162,-86.9948
1,1626619744054,2.30226,-0.0780932,9.54707,-0.00967383,0.0105247,-0.00296831,-0.987351,0.184754,0.0628133,0.719986,-0.0830888,-0.0831112,-0.683966,-0.350889,-13.4937,-87.0192
1,1626619744254,2.2924,-0.066334,9.52271,0.0086993,-0.0024125,-0.0106737,-0.993854,0.189149,0.049957,0.719575,-0.0831226,-0.0829708,-0.684411,-0.356686,-13.4848,-87.0884
1,1626619744455,2.3301,-0.084113,9.53444,0.0283673,0.00872016,-0.00383109,-0.997499,0.185004,0.0618731,0.7194,-0.0830737,-0.0828863,-0.684611,-0.355653,-13.4739,-87.1193
1,1626619744655,2.34653,-0.0716736,9.5542,-0.014548,-0.00296831,-0.0106379,-0.989976,0.184753,0.0601254,0.719059,-0.0832433,-0.0825961,-0.684984,-0.386457,-13.4634,-87.1739
1,1626619744855,2.29389,-0.0649191,9.54259,0.00916123,-0.00621528,-0.00178963,-0.984642,0.181684,0.0507972,0.718759,-0.0832204,-0.0823656,-0.685329,-0.396795,-13.4425,-87.2255
1,1626619745056,2.30717,-0.0561832,9.55472,0.013198,0.0142068,-0.0115067,-0.991931,0.186865,0.0525906,0.718482,-0.0831568,-0.082456,-0.685616,-0.378611,-13.4451,-87.2737
1,1626619745256,2.31191,-0.0807859,9.55299,-0.00254065,-0.00698119,-0.0181079,-0.982818,0.179702,0.060774,0.718113,-0.0833413,-0.0823938,-0.685988,-0.39204,-13.4548,-87.3325
1,1626619745457,2.30677,-0.0602185,9.55955,0.00527352,-0.000570714,0.000137091,-0.986796,0.196909,0.0580293,0.717726,-0.0834946,-0.0824555,-0.686366,-0.392578,-13.4724,-87.3947
1,1626619745657,2.30989,-0.0846701,9.54965,-0.00342578,0.00347793,-0.00871271,-0.98712,0.18432,0.0530307,0.717377,-0.0836112,-0.082541,-0.686707,-0.388802,-13.489,-87.4513
1,1626619745857,2.32716,-0.0807056,9.54402,0.00224411,0.00822544,-0.00190884,-0.994773,0.184702,0.0572204,0.717252,-0.0836098,-0.0823478,-0.686861,-0.401568,-13.4729,-87.4727
1,1626619746058,2.33576,-0.0773553,9.56575,0.00244975,0.00355989,-0.00317693,-0.992543,0.179731,0.0574061,0.717014,-0.0837808,-0.0822139,-0.687104,-0.422152,-13.4755,-87.5095
1,1626619746258,2.30818,-0.087165,9.55984,-0.00154078,0.0118941,-0.00858605,-1.00231,0.187549,0.0614331,0.716687,-0.083817,-0.0821579,-0.687448,-0.423181,-13.4739,-87.5642
1,1626619746459,2.31838,-0.0759758,9.52836,-0.00930727,0.000120699,0.00249743,-0.987104,0.187088,0.0603946,0.716423,-0.0837048,-0.0819573,-0.687761,-0.424277,-13.4484,-87.6113
1,1626619746659,2.32538,-0.0833297,9.52987,0.014016,-0.00359267,-0.007765,-0.994274,0.194733,0.0622106,0.716043,-0.0840511,-0.0820238,-0.688106,-0.441085,-13.4819,-87.6683
1,1626619746859,2.27594,-0.0456304,9.54993,-0.0126019,0.00585765,-0.00310987,-0.987221,0.184623,0.0603717,0.715627,-0.084267,-0.0818295,-0.688536,-0.466792,-13.4832,-87.7342
1,1626619747060,2.32354,-0.0772095,9.5423,0.0081867,-0.0192776,-0.00782162,-0.984978,0.177057,0.0580929,0.715409,-0.0841845,-0.0818813,-0.688765,-0.451251,-13.4811,-87.7726
1,1626619747260,2.30702,-0.0778749,9.55097,0.00393242,0.0221938,-0.0134408,-0.982294,0.184543,0.0608345,0.715094,-0.0844887,-0.0816264,-0.689086,-0.491371,-13.4844,-87.8197
1,1626619747461,2.3009,-0.0783626,9.54562,0.00618696,-0.0172257,-0.00224262,-0.994643,0.184571,0.0547784,0.714724,-0.0845197,-0.081623,-0.689466,-0.486916,-13.4869,-87.8815
1,1626619747661,2.28237,-0.059269,9.54627,0.0111356,-0.0129312,-0.00492781,-0.984683,0.189473,0.0581921,0.714371,-0.0844595,-0.0816186,-0.68984,-0.475092,-13.4819,-87.9421
1,1626619747861,2.32616,-0.069058,9.53717,0.0024274,0.00423342,-0.00950843,-0.977395,0.184291,0.0563986,0.714113,-0.0845757,-0.0817135,-0.690082,-0.472281,-13.4993,-87.9832
1,1626619748062,2.31807,-0.0932034,9.56282,0.00296533,0.00270456,0.000856817,-0.989755,0.19228,0.0626361,0.713675,-0.0845694,-0.0816579,-0.690541,-0.467489,-13.4945,-88.057
1,1626619748262,2.30976,-0.0838701,9.55738,0.0015527,0.00147969,0.013712,-0.989715,0.184491,0.0552413,0.713424,-0.0846399,-0.0816033,-0.690799,-0.472879,-13.4958,-88.0979
1,1626619748463,2.33051,-0.0699987,9.53513,0.00293702,0.00256598,-0.00452399,-0.98228,0.181947,0.0583701,0.713102,-0.0846384,-0.0818016,-0.691107,-0.450456,-13.5123,-88.1519
1,1626619748663,2.33034,-0.0759311,9.5781,-0.00173599,-0.00430048,-0.0223532,-0.989801,0.182198,0.0601174,0.712848,-0.0845482,-0.0817761,-0.691383,-0.439742,-13.5031,-88.1965
1,1626619748864,2.30816,-0.0711832,9.54268,0.0025332,0.00163168,-0.00135154,-0.992031,0.187168,0.0599318,0.712513,-0.0845183,-0.0817656,-0.691734,-0.431357,-13.5001,-88.2535
1,1626619749064,2.30588,-0.0730793,9.54169,0.00579804,-0.00340939,-0.0114992,-0.98932,0.189462,0.0577445,0.712218,-0.0845658,-0.0816,-0.692052,-0.442841,-13.4904,-88.3022
1,1626619749265,2.32905,-0.0975834,9.57921,-0.00279099,0.0012815,-0.00864267,-0.985239,0.177319,0.062976,0.711781,-0.0846368,-0.0817047,-0.69248,-0.431798,-13.505,-88.374
1,1626619749465,2.30999,-0.073925,9.55672,0.00925511,0.0148714,-0.000351667,-0.99181,0.194693,0.062442,0.71147,-0.0845505,-0.081687,-0.692812,-0.4197,-13.4968,-88.4279
1,1626619749665,2.32373,-0.0587462,9.54412,-0.00905991,-0.00666231,-0.00952482,-0.984757,0.184583,0.0606031,0.711197,-0.084585,-0.0817621,-0.69308,-0.411177,-13.5059,-88.473
1,1626619749866,2.30098,-0.0661995,9.56229,-0.00853986,-0.0092566,-0.0112027,-0.990193,0.18259,0.0674421,0.710882,-0.0848328,-0.0816557,-0.693385,-0.434584,-13.5173,-88.5207
1,1626619750066,2.30818,-0.0626727,9.545,-0.00403076,-0.00157952,0.00165105,-0.981956,0.194533,0.0633676,0.710522,-0.085102,-0.0816587,-0.693721,-0.450081,-13.5394,-88.5756
1,1626619750267,2.31361,-0.0879445,9.55587,0.00400096,0.00217855,0.00584871,-0.980078,0.182169,0.0634846,0.710392,-0.0851038,-0.081599,-0.69386,-0.452453,-13.5347,-88.5973
1,1626619750467,2.29914,-0.0716011,9.53406,0.0161588,0.0042215,-0.00696182,-0.990705,0.175153,0.064918,0.709923,-0.0851297,-0.0815189,-0.694346,-0.451798,-13.5305,-88.6753
1,1626619750668,2.2901,-0.0888467,9.53026,0.0113457,0.0021264,0.000365079,-0.990458,0.177487,0.0624988,0.709571,-0.0853056,-0.0813558,-0.694703,-0.472909,-13.5315,-88.7307
1,1626619750868,2.31302,-0.0575955,9.55863,-0.00988841,0.00171512,0.00646561,-0.985179,0.184804,0.0630304,0.709291,-0.0855261,-0.0813987,-0.694958,-0.482603,-13.553,-88.7731
1,1626619751068,2.29579,-0.0540322,9.54733,-0.00114143,-0.00656843,-0.0191882,-1.00024,0.187902,0.0689907,0.708979,-0.0854374,-0.0813088,-0.695297,-0.476141,-13.5387,-88.827
1,1626619751269,2.30017,-0.0682389,9.53979,0.00152588,0.00297129,-0.0117242,-0.985413,0.179873,0.0629846,0.708698,-0.0856235,-0.0812656,-0.695566,-0.489839,-13.5503,-88.8703
1,1626619751469,2.31161,-0.0679617,9.53207,0.0191793,0.00316501,-0.00849515,-0.994859,0.182409,0.0620961,0.708486,-0.0859023,-0.0811842,-0.695757,-0.515871,-13.5663,-88.8999
1,1626619751670,2.27959,-0.0633172,9.55007,0.00208318,0.00236928,0.00335574,-0.980078,0.182169,0.0634846,0.708186,-0.0858845,-0.0812262,-0.69606,-0.504996,-13.5685,-88.9505
1,1626619751870,2.29042,-0.0567708,9.55439,0.00414252,-0.0144839,-0.0175253,-0.984784,0.189774,0.065532,0.707867,-0.0857361,-0.0811054,-0.696416,-0.49584,-13.5468,-89.0068
1,1626619752071,2.28553,-0.0492989,9.56392,0.00012666,-0.0237048,-0.00574738,-0.985046,0.190036,0.0704151,0.707461,-0.0858285,-0.0810065,-0.696829,-0.503623,-13.5464,-89.0727
1,1626619752271,2.29852,-0.0866531,9.54805,0.00135601,0.0111923,-0.0213563,-0.987613,0.185015,0.0676964,0.707065,-0.0857341,-0.0809918,-0.697244,-0.488983,-13.5379,-89.1405
1,1626619752471,2.32559,-0.069191,9.54281,-0.000531972,0.00472367,-0.0151709,-0.984978,0.177057,0.0580929,0.706772,-0.0857267,-0.0810469,-0.697535,-0.478102,-13.542,-89.1895
1,1626619752672,2.29943,-0.0730538,9.53878,0.00309646,0.00526905,-0.0126645,-0.987234,0.187218,0.0628361,0.706417,-0.0856638,-0.0811888,-0.697886,-0.454262,-13.5488,-89.2499
1,1626619752872,2.28501,-0.0602236,9.55681,0.00967383,-0.00952482,0.00690073,-0.989828,0.187389,0.0650463,0.706171,-0.0856996,-0.0811761,-0.698132,-0.453453,-13.5508,-89.2901
1,1626619753073,2.3034,-0.0735439,9.52965,0.00483543,0.00547916,-0.0145435,-0.98773,0.18255,0.0676735,0.70595,-0.0855774,-0.0810652,-0.698383,-0.447748,-13.532,-89.3294
1,1626619753273,2.29632,-0.0742148,9.52762,-0.0061661,-0.00849962,-0.01086,-0.987468,0.182289,0.0627904,0.705572,-0.0856409,-0.0812591,-0.698735,-0.429923,-13.5532,-89.391
1,1626619753473,2.31373,-0.0815834,9.54918,0.0105739,0.00306666,-0.00436157,-0.985426,0.182469,0.0654496,0.705375,-0.0858002,-0.0813062,-0.698909,-0.435662,-13.5701,-89.4205
1,1626619753674,2.30387,-0.0773907,9.57414,0.0177145,0.00334829,0.00118613,-0.999494,0.194905,0.0617332,0.705062,-0.0857528,-0.081365,-0.699224,-0.420696,-13.5713,-89.4736
1,1626619753874,2.29083,-0.0675231,9.53638,-0.00393391,0.00608116,0.00183731,-0.985674,0.180135,0.0678687,0.704593,-0.0856129,-0.0811182,-0.699742,-0.419657,-13.54,-89.5544
1,1626619754075,2.307,-0.0892345,9.54823,0.0128239,-0.000531972,0.00353009,-0.995282,0.182629,0.0645237,0.7043,-0.0856279,-0.0811494,-0.700031,-0.41263,-13.544,-89.6026
1,1626619754275,2.3254,-0.0868851,9.54305,-0.000958145,-0.00343472,-0.0224873,-0.992611,0.192713,0.0697309,0.704034,-0.0854517,-0.0813237,-0.7003,-0.378356,-13.5441,-89.6504
1,1626619754475,2.3209,-0.0658218,9.55437,0.00792742,0.019525,-0.000163913,-0.992058,0.192359,0.0648607,0.70367,-0.0856417,-0.0813162,-0.700643,-0.387807,-13.5591,-89.7069
1,1626619754676,2.29208,-0.0434438,9.54085,0.00784844,0.00900775,-0.00720918,-0.985645,0.180307,0.0727652,0.703246,-0.085689,-0.0812855,-0.701067,-0.385924,-13.5607,-89.7763
1,1626619754876,2.29257,-0.0726361,9.57823,0.0213489,-0.00122488,-0.00510663,-0.980222,0.184895,0.0683906,0.702962,-0.0857197,-0.0813796,-0.701337,-0.375235,-13.571,-89.8228
1,1626619755077,2.32685,-0.0516784,9.53933,0.0101626,0.0170037,-0.0103861,-0.992202,0.195086,0.0697667,0.702487,-0.0858695,-0.0813541,-0.701798,-0.380542,-13.5814,-89.8985
1,1626619755277,2.30805,-0.049103,9.55405,-0.00129342,-0.00196546,-0.0155613,-0.980209,0.1823,0.0659262,0.702129,-0.0858537,-0.0812122,-0.702174,-0.383734,-13.5687,-89.9581
1,1626619755478,2.31792,-0.0851061,9.56021,0.000333786,0.0011757,-0.0177145,-0.997921,0.17272,0.0642148,0.701816,-0.0859845,-0.0813533,-0.702454,-0.377075,-13.5911,-90.0071
1,1626619755678,2.35237,-0.0923497,9.52108,0.00591129,0.00365526,-0.0128552,-0.987626,0.187611,0.0701608,0.701532,-0.0861069,-0.0813982,-0.702718,-0.378073,-13.6049,-90.0517
1,1626619755879,2.31658,-0.0936858,9.54389,0.00404567,0.00490248,0.0031516,-0.99254,0.185095,0.0672336,0.701109,-0.086066,-0.0812926,-0.703157,-0.374923,-13.5931,-90.1225
1,1626619756079,2.30528,-0.0939701,9.56455,-0.0102893,0.00579506,-0.000743568,-0.989842,0.189985,0.0675108,0.700707,-0.0861891,-0.081466,-0.703523,-0.363165,-13.6175,-90.1865
1,1626619756279,2.29269,-0.0838279,9.54027,-0.0069201,0.0108123,0.00134856,-0.987757,0.187742,0.0726024,0.700462,-0.0860701,-0.0814378,-0.703785,-0.350652,-13.6056,-90.2294
1,1626619756480,2.29539,-0.0622113,9.54691,-0.000558794,-0.0124335,0.00216216,-0.990224,0.182418,0.0625446,0.700026,-0.0863624,-0.0815436,-0.70417,-0.357925,-13.6384,-90.2954
1,1626619756680,2.31067,-0.0776577,9.5636,-0.0052914,-0.00282526,-0.0128195,-0.985179,0.184804,0.0630304,0.699825,-0.0865172,-0.081356,-0.704373,-0.382272,-13.6359,-90.3255
1,1626619756881,2.32058,-0.0797004,9.56846,0.0107795,-0.0128493,-0.0105187,-0.992715,0.187651,0.067243,0.699559,-0.0864173,-0.0815641,-0.704626,-0.351613,-13.6448,-90.3714
1,1626619757081,2.31269,-0.070718,9.55632,0.00195652,-0.00215769,0.0116989,-0.990003,0.189945,0.0650553,0.699155,-0.0864188,-0.0813393,-0.705051,-0.362202,-13.6268,-90.4379
1,1626619757282,2.33662,-0.0863489,9.54553,0.00265688,-0.00655055,-0.00350028,-0.989949,0.17956,0.0551955,0.698777,-0.0864706,-0.0814617,-0.705406,-0.349049,-13.6412,-90.4992
1,1626619757482,2.3041,-0.0530954,9.55263,0.00190288,0.00725389,-0.00770092,-0.987,0.192148,0.0628819,0.698493,-0.0864767,-0.0814387,-0.705689,-0.345845,-13.64,-90.5459
1,1626619757682,2.3322,-0.0910303,9.54445,0.0147611,-0.00725836,0.0055626,-0.997309,0.179853,0.0594003,0.698175,-0.0863476,-0.0812073,-0.706046,-0.347765,-13.6108,-90.6008
1,1626619757883,2.31304,-0.0701898,9.54559,0.00918359,-0.000272691,0.000686944,-0.982163,0.184412,0.058393,0.697928,-0.0864571,-0.0812514,-0.706272,-0.348456,-13.6234,-90.6392
1,1626619758083,2.32819,-0.0777352,9.54914,0.0106603,-0.010331,-0.00871122,-0.988838,0.196725,0.0553716,0.697446,-0.0864627,-0.0812062,-0.706752,-0.343167,-13.6205,-90.7185
1,1626619758284,2.31947,-0.0749837,9.53266,-0.0020504,-0.00137836,0.00306815,-0.994728,0.182278,0.0596546,0.69712,-0.0865287,-0.0810984,-0.707078,-0.351123,-13.6173,-90.7707
1,1626619758484,2.30065,-0.0651759,9.572,-0.00110865,0.0107855,-0.0111446,-0.989423,0.184401,0.0552572,0.696784,-0.086479,-0.0811088,-0.707415,-0.339523,-13.6142,-90.827
1,1626619758685,2.31319,-0.0607845,9.57833,0.000722706,0.00931323,-0.00427216,-0.984118,0.186524,0.0508597,0.696412,-0.0862728,-0.08109,-0.707808,-0.316577,-13.5959,-90.8922
1,1626619758885,2.3214,-0.0945195,9.55309,0.013946,0.00734776,-0.00038743,-0.986829,0.18423,0.053047,0.696061,-0.086217,-0.080999,-0.70817,-0.312567,-13.5841,-90.9508
1,1626619759085,2.29041,-0.0484694,9.52349,0.0154436,-0.0109181,0.00988692,-0.994453,0.17942,0.052307,0.695833,-0.0863086,-0.0808488,-0.7084,-0.328089,-13.5796,-90.9864
1,1626619759286,2.29089,-0.0812295,9.53056,-0.000110269,-0.000947714,-0.0160277,-0.984496,0.184321,0.05572,0.69566,-0.0861184,-0.0807686,-0.708602,-0.315476,-13.5576,-91.0186
1,1626619759486,2.29347,-0.085123,9.57536,0.0160903,-0.0233308,0.00924766,-0.989017,0.181412,0.045468,0.695339,-0.0861339,-0.080902,-0.7089,-0.299523,-13.5698,-91.0709
1,1626619759687,2.30709,-0.0808945,9.55532,-0.00602752,0.0153482,-0.00135303,-0.991625,0.184179,0.0501426,0.694968,-0.0859082,-0.0808667,-0.709296,-0.276415,-13.5485,-91.1363
1,1626619759887,2.30186,-0.0853147,9.56637,-0.00089854,0.0113681,-0.00535846,-0.988941,0.191665,0.0528843,0.694639,-0.0857676,-0.0809541,-0.709624,-0.251129,-13.5441,-91.1929
1,1626619760088,2.33884,-0.0776388,9.55017,0.0171751,-0.0102445,-0.00874847,-0.989265,0.179078,0.0478867,0.694222,-0.0857839,-0.0808447,-0.710042,-0.253407,-13.5367,-91.2608
1,1626619760288,2.28631,-0.0467839,9.5365,0.0104785,0.00601262,-0.00631362,-0.989657,0.179471,0.0552114,0.693903,-0.0858194,-0.0809155,-0.710342,-0.244305,-13.5455,-91.3124
1,1626619760488,2.31097,-0.0626984,9.54843,-0.0115439,0.00426173,-0.00741035,-0.984248,0.186655,0.0533013,0.693588,-0.08587,-0.0808198,-0.710655,-0.250289,-13.5421,-91.3629
1,1626619760689,2.3042,-0.0704149,9.55471,-0.00541359,0.00662506,-0.0145152,-0.999105,0.176643,0.0444966,0.693264,-0.0862314,-0.0806621,-0.710945,-0.287012,-13.5593,-91.4087
1,1626619760889,2.29989,-0.0470934,9.57176,-0.00848919,-0.0128791,0.00609756,-0.988563,0.193868,0.048024,0.693004,-0.0863171,-0.0806062,-0.711194,-0.293689,-13.562,-91.4494
1,1626619761090,2.3156,-0.0646678,9.5643,-0.00893474,-0.017345,-0.00553727,-0.98387,0.188858,0.0484411,0.692597,-0.0865989,-0.0804992,-0.711568,-0.317999,-13.5768,-91.5102
1,1626619761290,2.31453,-0.0914286,9.55688,0.000292063,0.00077188,-0.0109822,-0.986595,0.18916,0.0530928,0.69227,-0.0865596,-0.0803668,-0.711906,-0.319332,-13.5631,-91.5644
1,1626619761490,2.3205,-0.0911166,9.5296,0.00596344,0.0102475,0.0027433,-0.996625,0.191876,0.0521735,0.691871,-0.0864861,-0.0803297,-0.712307,-0.308572,-13.5542,-91.631
1,1626619761691,2.30158,-0.080846,9.5385,-0.00913292,0.0044167,-0.0195086,-0.986859,0.184058,0.0481465,0.691601,-0.0865418,-0.0803165,-0.712564,-0.309048,-13.5579,-91.6738
1,1626619761891,2.29459,-0.0753413,9.53459,-0.0171959,0.018321,-0.00684857,-0.996845,0.184349,0.0496628,0.691141,-0.0865879,-0.0802641,-0.713011,-0.308283,-13.5577,-91.748
1,1626619762092,2.32427,-0.0620465,9.52503,-0.00959188,0.00560731,-0.0139967,-0.994395,0.186905,0.0523592,0.690942,-0.0865166,-0.0803068,-0.713208,-0.294981,-13.5553,-91.7819
1,1626619762292,2.31805,-0.0661192,9.55052,0.0255615,-0.0104129,-0.0099197,-0.992021,0.179207,0.0476379,0.690643,-0.0865343,-0.0802972,-0.713496,-0.291462,-13.5561,-91.8302
1,1626619762493,2.32026,-0.0734144,9.54907,0.00658184,0.00712574,-0.0110433,-0.982397,0.179482,0.0583472,0.690266,-0.0865022,-0.0800714,-0.71389,-0.300254,-13.5355,-91.892
1,1626619762693,2.30272,-0.0748865,9.56003,0.0210434,0.00764728,-0.00801832,-0.984276,0.191846,0.0582302,0.689931,-0.0865701,-0.0800197,-0.714211,-0.303672,-13.5371,-91.9453
1,1626619762894,2.34149,-0.0601117,9.55202,-0.00571609,-0.0012815,0.021559,-0.987076,0.181896,0.0554657,0.689582,-0.0865284,-0.0799143,-0.714565,-0.302259,-13.5253,-92.0027
1,1626619763094,2.29832,-0.0761425,9.55713,0.000563264,0.0181809,-0.00845492,-0.984613,0.181856,0.0556971,0.689223,-0.0864231,-0.0798711,-0.714929,-0.290242,-13.5133,-92.0632
1,1626619763294,2.32203,-0.0870285,9.55936,-0.000724196,0.0136435,-0.0143081,-0.98709,0.184492,0.0579301,0.688915,-0.0866199,-0.0798395,-0.715206,-0.303153,-13.5272,-92.1094
1,1626619763495,2.2912,-0.0633202,9.53973,0.0231281,0.0105917,-0.0084281,-0.992206,0.189724,0.0599397,0.688528,-0.0866893,-0.0799049,-0.715563,-0.295972,-13.5384,-92.171
1,1626619763695,2.31257,-0.0747541,9.5583,-0.00923276,0.00747591,-0.0117138,-0.99467,0.189764,0.0597083,0.688224,-0.0866667,-0.079797,-0.715869,-0.297245,-13.528,-92.2206
1,1626619763896,2.2994,-0.0707487,9.56107,0.00454187,0.0145242,-0.00945479,-0.989715,0.184491,0.0552413,0.68797,-0.0865371,-0.0797342,-0.716136,-0.286899,-13.5123,-92.2644
1,1626619764096,2.30143,-0.0675286,9.56488,-0.00871867,0.00108629,-0.0244081,-0.999818,0.182316,0.0567346,0.687608,-0.0866027,-0.0795532,-0.716496,-0.30041,-13.5034,-92.3218
1,1626619764296,2.29617,-0.0701419,9.55426,0.00693053,0.007011,-0.0304922,-0.984593,0.197131,0.0631448,0.687215,-0.0867099,-0.0798512,-0.716827,-0.276856,-13.5363,-92.3835
1,1626619764497,2.28563,-0.0632249,9.53434,-0.00550896,0.000286102,0.000368059,-0.987278,0.189644,0.0604026,0.686953,-0.0867678,-0.0796463,-0.717094,-0.293648,-13.5249,-92.4248
1,1626619764697,2.33494,-0.087891,9.54897,-0.00402927,0.00429153,-0.00865757,-0.981971,0.191767,0.0560043,0.686739,-0.0868508,-0.0793703,-0.717319,-0.319383,-13.5099,-92.4576
1,1626619764898,2.31601,-0.0707492,9.56839,0.00727624,-0.00679642,-0.00623763,-0.992426,0.182196,0.057429,0.686316,-0.0868276,-0.0794481,-0.717718,-0.302866,-13.5143,-92.5266
1,1626619765098,2.30008,-0.0790065,9.57795,-0.00216812,-0.00508279,-0.0255167,-0.994539,0.189633,0.0572662,0.685932,-0.0868905,-0.0794072,-0.718082,-0.304078,-13.5165,-92.5875
1,1626619765298,2.2959,-0.0675135,9.58511,0.0127539,0.00209063,0.000163913,-0.980251,0.184724,0.0634933,0.685548,-0.0870638,-0.0793019,-0.718439,-0.319731,-13.5227,-92.6461
1,1626619765499,2.31827,-0.0835074,9.54242,0.0080809,0.0150785,-0.0128001,-0.992161,0.187298,0.0623733,0.685287,-0.0870389,-0.0792139,-0.718701,-0.320038,-13.5137,-92.6887
1,1626619765699,2.29595,-0.04581,9.5361,-0.0010699,0.00430644,-0.00481009,-0.983897,0.19405,0.05337,0.684968,-0.0870674,-0.0791148,-0.719012,-0.324558,-13.5084,-92.7396
1,1626619765900,2.3033,-0.0738435,9.5369,0.00894964,0.000418723,-0.0210389,-0.989801,0.182198,0.0601174,0.684709,-0.0871929,-0.0791481,-0.71924,-0.327089,-13.5216,-92.7791
1,1626619766100,2.31014,-0.0764052,9.53744,-1.49012e-06,0.00410676,-0.00447482,-0.990049,0.179864,0.0625361,0.684379,-0.0873362,-0.0791672,-0.719534,-0.330916,-13.5352,-92.8296
1,1626619766301,2.31465,-0.0677256,9.53833,0.00693053,-0.00412464,-0.0193655,-0.989437,0.186997,0.0577216,0.683981,-0.0876588,-0.0791723,-0.719874,-0.349271,-13.5628,-92.8876
1,1626619766501,2.29789,-0.065466,9.54642,-0.00246167,0.0104427,-0.0160679,-0.989877,0.171946,0.0527012,0.683652,-0.087705,-0.0791555,-0.720182,-0.34815,-13.5655,-92.9397
1,1626619766701,2.27936,-0.0833833,9.54924,-7.89762e-05,-0.000479817,-0.0124604,-0.999173,0.189621,0.0568189,0.683171,-0.0878464,-0.0789861,-0.72064,-0.364663,-13.5641,-93.0145
1,1626619766902,2.33594,-0.0915893,9.54643,0.00913143,-0.00139624,-0.00745654,-0.981668,0.18908,0.0535556,0.682942,-0.087866,-0.0789508,-0.720858,-0.364836,-13.5631,-93.051
1,1626619767102,2.30919,-0.05419,9.54251,0.0175834,-0.00856668,-0.0041768,-0.994467,0.182016,0.0547715,0.68264,-0.0879235,-0.0788583,-0.721147,-0.371506,-13.5607,-93.0985
1,1626619767303,2.30515,-0.0659181,9.55371,0.0031516,0.00399798,-0.0166997,-0.992499,0.177308,0.0598402,0.682351,-0.0880198,-0.0789097,-0.721403,-0.369536,-13.573,-93.1431
1,1626619767503,2.31385,-0.0795022,9.56547,-0.00636578,0.00854135,0.0110373,-0.986568,0.183968,0.0481639,0.682033,-0.0879267,-0.0788402,-0.721723,-0.361651,-13.5598,-93.1962
1,1626619767703,2.29641,-0.0562045,9.56028,0.0165373,-0.000293553,-0.0125989,-0.993841,0.186553,0.0474925,0.681586,-0.0878959,-0.0787189,-0.722162,-0.360783,-13.5479,-93.2685
1,1626619767904,2.32395,-0.0607886,9.55817,-0.0134036,0.0120521,0.00400394,-0.974512,0.18403,0.0542041,0.681338,-0.0879229,-0.0787882,-0.722385,-0.352431,-13.5557,-93.3079
1,1626619768104,2.32615,-0.0799102,9.55301,-0.0119627,-0.00400245,-0.00739694,-0.989382,0.176614,0.0478638,0.680975,-0.0878486,-0.0787357,-0.722742,-0.343843,-13.5455,-93.3677
1,1626619768305,2.28615,-0.0457446,9.53941,0.00552088,0.00859648,-0.00547171,-0.989409,0.181805,0.0527927,0.68082,-0.0880114,-0.078802,-0.722861,-0.348578,-13.5645,-93.3895
1,1626619768505,2.31733,-0.0870689,9.57952,0.00586808,-0.000755489,0.0188485,-0.991522,0.18924,0.05263,0.680358,-0.088021,-0.0787827,-0.723297,-0.342141,-13.564,-93.4637
1,1626619768705,2.32168,-0.0741835,9.56018,0.0222236,-0.00195503,-0.00611842,-0.991639,0.186775,0.0526071,0.680031,-0.0880805,-0.0788477,-0.72359,-0.33528,-13.5743,-93.5151
1,1626619768906,2.30356,-0.0933123,9.54426,-0.00174046,0.00103116,0.00232458,-0.989175,0.186735,0.0528385,0.679709,-0.0881198,-0.0788546,-0.723887,-0.331737,-13.5783,-93.566
1,1626619769106,2.29709,-0.0629401,9.56127,0.0169858,-0.00836253,-0.0137955,-0.984496,0.184321,0.05572,0.679448,-0.0880467,-0.0786893,-0.724159,-0.334713,-13.5592,-93.6093
1,1626619769307,2.28725,-0.0555285,9.55105,0.00484437,0.00312626,-0.00256598,-0.991639,0.186775,0.0526071,0.67911,-0.0880946,-0.0784725,-0.724494,-0.350446,-13.5463,-93.6622
1,1626619769507,2.30596,-0.0839491,9.53022,0.0140503,-0.00457317,-0.00984222,-0.989058,0.1892,0.0528614,0.678632,-0.0878383,-0.078418,-0.724979,-0.325111,-13.5206,-93.7439
1,1626619769707,2.32473,-0.103383,9.57104,-0.0111222,0.00293106,-0.00908375,-0.989671,0.182067,0.0576758,0.678234,-0.0877891,-0.078434,-0.725355,-0.312207,-13.5179,-93.8086
1,1626619769908,2.3173,-0.0792751,9.54864,-0.00770241,0.0106722,0.00752509,-0.991274,0.191574,0.0502113,0.677881,-0.0878816,-0.078515,-0.725665,-0.306166,-13.5323,-93.8635
1,1626619770108,2.26014,-0.0691196,9.60873,-0.0121653,-0.00893474,0.00244826,-0.994323,0.179289,0.0498655,0.67707,-0.0878434,-0.0781847,-0.726462,-0.315595,-13.5034,-93.9936
1,1626619770309,2.32094,-0.0737124,9.47921,-0.00203997,0.014171,-0.00948012,-0.981799,0.189211,0.0559972,0.676873,-0.0879786,-0.0782706,-0.72662,-0.31554,-13.5216,-94.0227
1,1626619770509,2.27532,-0.0559386,9.51398,0.00586957,0.0129253,0.00980347,-0.99476,0.182105,0.0547555,0.676591,-0.0879568,-0.0781455,-0.726898,-0.319033,-13.5101,-94.0679
1,1626619770709,2.27489,-0.060296,9.65809,0.00658482,-0.00177622,-0.0286534,-0.987237,0.181855,0.0530078,0.676492,-0.0876019,-0.078083,-0.727041,-0.293691,-13.4752,-94.0906
1,1626619770910,2.29623,-0.0723636,9.55426,-0.0121623,-0.00227243,-0.00221729,-0.986769,0.191716,0.0530993,0.676297,-0.0876392,-0.0778257,-0.727245,-0.314798,-13.4583,-94.1207
1,1626619771110,2.322,-0.0851552,9.54254,-0.00214577,-0.00617653,-0.00197142,-0.995386,0.177567,0.0620359,0.675791,-0.0878682,-0.0778401,-0.727686,-0.322573,-13.479,-94.197
1,1626619771311,2.30882,-0.0546248,9.52097,0.0111103,0.00180006,0.0143439,-0.997341,0.17968,0.0545011,0.675695,-0.0878216,-0.0777194,-0.727793,-0.327214,-13.4656,-94.2131
1,1626619771511,2.32161,-0.0550327,9.52677,0.0124082,0.0216305,-0.00869781,-0.994233,0.186946,0.0548172,0.675301,-0.0877465,-0.0775891,-0.728182,-0.324753,-13.4492,-94.2773
1,1626619771711,2.31777,-0.0860502,9.66583,0.00271499,0.00425577,-0.00223368,-0.992278,0.184834,0.0623504,0.674655,-0.0878163,-0.0774062,-0.728792,-0.333744,-13.441,-94.3787
1,1626619771912,2.33781,-0.0976135,9.53401,-0.0197276,0.0118524,-0.0123009,-0.994845,0.179813,0.0596317,0.674282,-0.0880642,-0.0774903,-0.729098,-0.339609,-13.4688,-94.4335
1,1626619772112,2.31491,-0.0520523,9.57879,0.0123531,0.0238463,-0.022088,-0.994859,0.182409,0.0620961,0.673794,-0.088124,-0.0772104,-0.729571,-0.359003,-13.4522,-94.5097
1,1626619772313,2.29548,-0.0524858,9.54771,0.00498593,0.005804,-0.00869483,-0.995237,0.180206,0.0669564,0.673396,-0.0880575,-0.0767975,-0.72999,-0.381237,-13.4144,-94.5738
1,1626619772513,2.32424,-0.0860063,9.55979,-0.00443309,-0.00503212,-0.00749975,-1.00499,0.185426,0.0685181,0.672945,-0.0878452,-0.0766071,-0.730452,-0.371894,-13.3818,-94.6493
1,1626619772713,2.31611,-0.084688,9.56655,-0.00699908,0.0167042,-0.00802875,-0.993035,0.180427,0.0720709,0.672561,-0.0879031,-0.0763772,-0.730822,-0.388923,-13.3689,-94.709
1,1626619772914,2.34969,-0.0668637,9.55937,0.000910461,0.00210702,0.00966043,-0.992292,0.187429,0.0648149,0.67222,-0.0878082,-0.0761775,-0.731168,-0.391935,-13.3454,-94.7646
1,1626619773114,2.30676,-0.0932372,9.56214,0.0108555,0.00790209,-0.00604838,-1.00279,0.185648,0.0736326,0.67181,-0.0877538,-0.0762517,-0.731544,-0.373616,-13.3468,-94.831
1,1626619773315,2.31294,-0.0858291,9.50858,0.0078842,-0.00492931,0.00533611,-1.00288,0.177991,0.0686809,0.671456,-0.0879513,-0.0761212,-0.731858,-0.39403,-13.3536,-94.8831
1,1626619773515,2.30315,-0.0683742,9.42637,-0.00906289,-0.0134572,0.00151545,-0.995003,0.185135,0.0670022,0.671264,-0.0878796,-0.0760274,-0.732053,-0.392682,-13.3403,-94.9149
1,1626619773715,2.29844,-0.0808862,9.55186,0.00787973,0.005804,0.00417382,-1.00016,0.180285,0.0664936,0.670905,-0.0880356,-0.076013,-0.732365,-0.399751,-13.3526,-94.9689
1,1626619773916,2.30822,-0.0786155,9.57115,-0.0126541,-0.00412613,-0.0127092,-1.00237,0.180064,0.061379,0.670473,-0.0880646,-0.0758728,-0.732772,-0.406013,-13.3444,-95.0366
1,1626619774116,2.24174,-0.00430338,9.25622,0.0175729,0.0152007,-0.0157267,-0.995147,0.187862,0.0719082,0.670108,-0.0880865,-0.0758884,-0.733101,-0.39968,-13.3477,-95.0941
1,1626619774316,2.2209,-0.151301,9.5908,0.011003,0.00618845,-0.0211,-0.993008,0.175236,0.067142,0.669792,-0.0879078,-0.0759403,-0.733406,-0.375083,-13.3367,-95.1476
1,1626619774517,2.2971,-0.0695802,9.52137,0.00953227,0.00741631,0.00174791,-0.995003,0.185135,0.0670022,0.669535,-0.0879451,-0.0760594,-0.733623,-0.363142,-13.3492,-95.1877
1,1626619774717,2.32,-0.090759,9.56555,0.0202313,-0.0138134,-0.0102803,-0.9977,0.180245,0.066725,0.669174,-0.0880523,-0.0762521,-0.73392,-0.348577,-13.3735,-95.2432
1,1626619774918,2.34921,0.0753819,9.53896,0.0165015,0.019078,0.0254139,-0.998065,0.175447,0.0691208,0.669182,-0.0878913,-0.0760198,-0.733956,-0.355673,-13.3418,-95.2446
1,1626619775118,2.31187,-0.124644,9.59614,0.00496358,-0.0186339,0.0224412,-0.992161,0.187298,0.0623733,0.671868,-0.0867403,-0.0755344,-0.731686,-0.354357,-13.2048,-94.8398
1,1626619775319,2.42813,-0.0950627,9.53468,0.0135601,-0.0202253,-0.0568569,-0.98945,0.189592,0.0601861,0.672277,-0.0872384,-0.0761038,-0.731192,-0.353463,-13.2913,-94.7663
1,1626619775519,2.30008,-0.0878707,9.55623,0.00429004,-0.00146329,-0.0171512,-0.989554,0.184532,0.0576987,0.67131,-0.0875993,-0.0761741,-0.732029,-0.358541,-13.3279,-94.9131
1,1626619775719,2.31979,-0.0860371,9.58338,0.00596494,-0.00639409,-0.0178784,-0.999187,0.192217,0.0592833,0.670954,-0.0876765,-0.0762386,-0.732339,-0.352655,-13.3397,-94.9682
1,1626619775920,2.3108,-0.0785349,9.53502,0.0139743,0.000829995,-0.0104696,-0.989684,0.184663,0.0601403,0.670427,-0.0878632,-0.0764751,-0.732775,-0.33766,-13.3742,-95.0487
1,1626619776120,2.29555,-0.0839241,9.56919,-0.00462979,0.00291318,-0.0139669,-0.994377,0.189672,0.0597233,0.669929,-0.0880634,-0.0762917,-0.733225,-0.360105,-13.3772,-95.1235
1,1626619776321,2.29824,-0.0711828,9.52954,0.00354499,-0.00961572,0.00795573,-0.984523,0.189513,0.0606489,0.669523,-0.0878036,-0.0763919,-0.733617,-0.323213,-13.3631,-95.1929
1,1626619776521,2.31015,-0.0614209,9.5344,0.00955462,0.000618398,-0.0145167,-0.986753,0.194482,0.0604632,0.669072,-0.0878844,-0.0765678,-0.734,-0.306277,-13.3838,-95.2631
1,1626619776721,2.29868,-0.0799699,9.54698,0.00609756,0.000396371,-0.00503957,-0.991797,0.192097,0.0599775,0.668735,-0.0880703,-0.0764941,-0.734293,-0.321178,-13.3941,-95.3128
1,1626619776922,2.30329,-0.0760481,9.54222,-0.00359267,0.00562817,0.0097096,-0.991797,0.192097,0.0599775,0.668265,-0.0882489,-0.0762653,-0.734723,-0.34629,-13.3918,-95.3834
1,1626619777122,2.32709,-0.0927922,9.56808,0.0019297,-1.93715e-05,-0.00647008,-0.989567,0.187128,0.0601632,0.667973,-0.0881689,-0.0763083,-0.734993,-0.33081,-13.3884,-95.4311
1,1626619777323,2.29279,-0.061648,9.53279,0.00102073,-0.00229776,0.00301451,-0.986973,0.186957,0.057953,0.66754,-0.0883282,-0.0762649,-0.735372,-0.339214,-13.3988,-95.4964
1,1626619777523,2.32142,-0.0931624,9.55549,0.00296533,-0.0116125,-0.00725389,-0.988955,0.19426,0.0553487,0.667263,-0.0884132,-0.0763045,-0.735609,-0.33747,-13.4093,-95.5386
1,1626619777723,2.31264,-0.070239,9.55665,0.00360012,-0.0170752,-0.0107393,-0.999187,0.192217,0.0592833,0.666745,-0.0886098,-0.0763462,-0.736051,-0.339939,-13.4295,-95.6169
1,1626619777924,2.31724,-0.102777,9.53094,0.00319779,-0.00401884,-0.00107884,-0.994508,0.189803,0.0621648,0.666506,-0.0886997,-0.0762405,-0.736268,-0.351725,-13.4292,-95.6527
1,1626619778124,2.30709,-0.0729432,9.53105,0.00374764,-0.0121474,-0.00535697,-0.989464,0.192188,0.0626505,0.665976,-0.0887281,-0.0760629,-0.736762,-0.359373,-13.4181,-95.7354
1,1626619778325,2.28265,-0.0684853,9.54626,-0.000458956,7.00355e-05,-0.0249818,-0.984901,0.187309,0.0655091,0.665648,-0.0889011,-0.075792,-0.737065,-0.390308,-13.4121,-95.7834
1,1626619778525,2.27899,-0.0559739,9.55435,0.00906437,0.00807941,0.00228882,-0.989216,0.194522,0.0602318,0.665422,-0.0890204,-0.0757505,-0.737259,-0.399186,-13.4192,-95.8166
1,1626619778725,2.31395,-0.0808811,9.55247,0.00323802,0.00586361,-0.00560135,-0.989828,0.187389,0.0650463,0.664986,-0.0890283,-0.0756468,-0.737662,-0.400638,-13.4121,-95.885
1,1626619778926,2.30054,-0.104806,9.55688,0.000353158,0.0105232,-0.0104696,-0.982218,0.194795,0.0682507,0.664702,-0.0890881,-0.0757354,-0.737901,-0.392527,-13.4242,-95.9287
1,1626619779126,2.29129,-0.0460683,9.54854,0.0261188,-0.00532419,-0.00562966,-0.989099,0.196987,0.0602547,0.664372,-0.089301,-0.075806,-0.738165,-0.397269,-13.4481,-95.9768
1,1626619779327,2.29177,-0.0751316,9.53535,0.0191778,0.00939071,-0.0107318,-0.994404,0.194864,0.0646521,0.664038,-0.0892395,-0.0756743,-0.738487,-0.397503,-13.4329,-96.0302
1,1626619779527,2.29415,-0.0886491,9.57018,0.00766814,0.00331998,0.0110403,-0.981853,0.199594,0.065855,0.663692,-0.0893294,-0.0755857,-0.738796,-0.405853,-13.4339,-96.0829
1,1626619779727,2.27141,-0.084871,9.56658,-0.00198931,0.00150502,-0.00103861,-0.98687,0.192017,0.0604404,0.663388,-0.089419,-0.0754989,-0.739067,-0.414808,-13.4351,-96.1287
1,1626619779928,2.30419,-0.0868216,9.53164,0.0120446,-0.0093326,-0.000628829,-0.989725,0.19245,0.0675336,0.663005,-0.0895436,-0.0752473,-0.739422,-0.439242,-13.4266,-96.1861
1,1626619780128,2.3289,-0.076266,9.57086,0.00508577,-0.000409782,-0.00948906,-0.986883,0.194613,0.0629048,0.66256,-0.0894281,-0.0750755,-0.739852,-0.436664,-13.4037,-96.2579
1,1626619780329,2.30922,-0.068914,9.53591,0.0197187,-0.00256151,0.000737608,-0.98197,0.197129,0.0658321,0.662343,-0.0894418,-0.0750324,-0.740049,-0.437455,-13.4017,-96.2916
1,1626619780529,2.29341,-0.0434163,9.44978,0.00783205,-0.00264049,-0.0186235,-0.989113,0.199583,0.0627192,0.662105,-0.0895639,-0.0749457,-0.740256,-0.45021,-13.4057,-96.3265
1,1626619780729,2.31226,-0.0594497,9.56337,-0.00974089,0.00962317,-0.0103757,-0.987248,0.189814,0.0653006,0.661884,-0.0895763,-0.0748116,-0.740465,-0.458676,-13.3966,-96.3606
1,1626619780930,2.28011,-0.0655961,9.53805,0.00147074,0.00112802,-0.000956654,-0.987131,0.192279,0.0653235,0.661614,-0.0896385,-0.0746239,-0.740718,-0.474795,-13.3876,-96.4015
1,1626619781130,2.28598,-0.067473,9.55159,-9.98378e-05,0.00398755,-0.00971556,-0.989113,0.199583,0.0627192,0.66116,-0.0896188,-0.0746727,-0.74112,-0.460692,-13.39,-96.473
1,1626619781331,2.32221,-0.0640558,9.53166,-0.0125155,0.00399351,0.00590384,-0.992278,0.184834,0.0623504,0.660863,-0.0899346,-0.0745944,-0.741356,-0.486938,-13.4113,-96.5135
1,1626619781531,2.30527,-0.0839452,9.55963,-0.0117078,0.00727624,-0.000283122,-0.989828,0.187389,0.0650463,0.66059,-0.0899002,-0.0745432,-0.741608,-0.483628,-13.4046,-96.5568
1,1626619781731,2.29342,-0.0894471,9.56446,0.0142872,0.0216976,0.00732392,-0.990324,0.182721,0.0698837,0.660165,-0.0899789,-0.0747613,-0.741954,-0.463174,-13.4284,-96.6223
1,1626619781932,2.30734,-0.091736,9.55584,0.0143722,-0.00736862,-0.00378042,-0.984681,0.194835,0.0680193,0.659892,-0.0899339,-0.0747349,-0.742206,-0.456871,-13.4227,-96.6659
1,1626619782132,2.27335,-0.0679802,9.55631,0.00882,-0.00304431,-0.00677109,-0.987172,0.200066,0.0727168,0.659449,-0.0898949,-0.0747477,-0.742603,-0.444521,-13.4206,-96.736
1,1626619782333,2.2598,-0.0373387,9.83072,-0.0053063,-0.00271797,-0.0511616,-0.989505,0.199976,0.0700439,0.661902,-0.0891916,-0.0747905,-0.740498,-0.430361,-13.3619,-96.365
1,1626619782533,2.27658,-0.0634236,9.57126,0.00614822,0.00889301,0.0517264,-0.997012,0.197631,0.0693267,0.662178,-0.0887765,-0.074371,-0.740343,-0.438705,-13.2938,-96.3287
1,1626619782733,2.1617,-0.285381,9.49104,0.0180513,-0.0298396,0.0428006,-0.979678,0.205007,0.0758984,0.663722,-0.0894113,-0.0751517,-0.738804,-0.450235,-13.4075,-96.0756
1,1626619782934,2.30232,-0.0697226,9.546,0.00810474,0.00727177,-0.00107884,-0.98488,0.207945,0.0827831,0.663525,-0.0895058,-0.0752422,-0.73896,-0.446312,-13.4227,-96.105
1,1626619783134,2.30537,-0.0961805,9.5655,0.00834912,-0.00285506,-0.00630319,-0.980056,0.202804,0.0807586,0.663111,-0.0896112,-0.0753445,-0.739309,-0.438198,-13.4398,-96.1684
1,1626619783335,2.31885,-0.103274,9.50829,0.0202566,-0.00947416,-0.0222579,-0.976994,0.212493,0.07864,0.662762,-0.0896443,-0.0754271,-0.739609,-0.42727,-13.4492,-96.2227
1,1626619783535,2.3111,-0.0658599,9.56046,0.0109747,-0.00278503,-0.0108749,-0.977111,0.210028,0.0786171,0.662498,-0.0895042,-0.0755257,-0.739852,-0.402781,-13.445,-96.267
1,1626619783735,2.30222,-0.0671627,9.53108,0.0225142,0.0241816,0.0124633,-0.975012,0.205189,0.0812443,0.662125,-0.089708,-0.0757085,-0.740143,-0.39626,-13.4767,-96.3222
1,1626619783936,2.32628,-0.0799232,9.53566,0.00175983,-0.00581741,-0.0174925,-0.989649,0.202702,0.0749499,0.661662,-0.0895139,-0.0756948,-0.740581,-0.373496,-13.4592,-96.3984
1,1626619784136,2.31589,-0.0848721,9.5506,0.00599176,0.000935793,-0.00908226,-0.979341,0.214998,0.0784315,0.661247,-0.0893626,-0.0755952,-0.74098,-0.362434,-13.4388,-96.4661
1,1626619784337,2.30582,-0.0868888,9.56013,0.0153273,-0.00290871,0.0030756,-0.984371,0.210017,0.0754813,0.660985,-0.0893759,-0.0755538,-0.741217,-0.362215,-13.4369,-96.5069
1,1626619784537,2.32111,-0.0714107,9.51766,0.00430495,-0.0102013,-0.0216544,-0.977359,0.207694,0.0810358,0.660736,-0.089433,-0.0755177,-0.741436,-0.365244,-13.4391,-96.5448
1,1626619784737,2.28008,-0.0794386,9.66495,0.0193819,0.00670701,0.00434965,-0.977098,0.207432,0.0761527,0.660321,-0.0894285,-0.0754805,-0.74181,-0.360444,-13.4361,-96.6099
1,1626619784938,2.32567,-0.0773079,9.57995,0.0169039,-0.0106364,-0.00713617,-0.977201,0.202371,0.0736653,0.660072,-0.0897159,-0.0755214,-0.741993,-0.375012,-13.4641,-96.6436
1,1626619785138,2.30835,-0.158784,9.53327,0.00599772,-0.0024125,0.00465959,-0.979781,0.199947,0.0734111,0.659199,-0.0898078,-0.0753481,-0.742774,-0.381132,-13.4592,-96.778
1,1626619785339,2.27625,-0.0469285,9.55372,0.00535548,-0.0130013,-0.00549108,-0.982114,0.199856,0.0707381,0.659094,-0.0900769,-0.0756824,-0.742801,-0.371502,-13.5081,-96.7901
1,1626619785539,2.30198,-0.0769614,9.55517,-0.000214577,0.00165701,-0.0164464,-0.982218,0.194795,0.0682507,0.656393,-0.0905924,-0.0758203,-0.745112,-0.350051,-13.5644,-97.2027
1,1626619785739,2.35129,-0.0811199,9.55566,-0.00596493,0.000412762,-0.00126213,-0.984695,0.197431,0.0704838,0.655725,-0.0905487,-0.0755561,-0.745732,-0.3572,-13.5408,-97.307
1,1626619785940,2.31947,-0.0653596,9.52679,-0.00255704,-0.0013113,0.0177965,-0.988631,0.206847,0.0603463,0.655484,-0.0906642,-0.0754369,-0.745942,-0.372166,-13.5419,-97.3421
1,1626619786140,2.35799,-0.0888427,9.56062,-0.014165,0.0117362,-0.0176638,-0.978619,0.201364,0.0539014,0.655037,-0.0905709,-0.0754394,-0.746346,-0.356347,-13.5342,-97.4136
1,1626619786341,2.34379,-0.064134,9.55692,0.0127509,0.0126362,-0.0193134,-0.984028,0.194181,0.0558115,0.654715,-0.0906283,-0.0753669,-0.746629,-0.361205,-13.5338,-97.4624
1,1626619786541,2.33039,-0.043475,9.49782,0.00194758,0.00860989,-0.0167236,-0.976899,0.194322,0.0613889,0.654108,-0.0907936,-0.0751865,-0.747159,-0.378646,-13.5347,-97.5534
1,1626619786741,2.34034,-0.0744666,9.55509,-0.00630319,0.0129044,-0.00492632,-0.979245,0.196827,0.0611804,0.653716,-0.0911357,-0.0753879,-0.74744,-0.380658,-13.5799,-97.6083
1,1626619786942,2.35175,-0.0848437,9.55569,0.0103757,0.00209659,-0.011158,-0.976899,0.194322,0.0613889,0.65332,-0.0913669,-0.0752464,-0.747772,-0.40375,-13.5895,-97.6652
1,1626619787142,2.3727,-0.0591048,9.73748,0.012818,0.0246957,-0.00353456,-0.971724,0.196576,0.059433,0.652958,-0.0913076,-0.0752126,-0.748098,-0.395359,-13.5819,-97.7224
1,1626619787343,2.42992,-0.0544221,9.19065,0.00436455,-0.0161484,-0.014393,-0.979596,0.189433,0.0611117,0.651636,-0.0920335,-0.0756679,-0.749116,-0.387826,-13.6803,-97.9152
1,1626619787543,2.33912,-0.0863956,9.55128,-0.000685453,0.00612885,-0.014244,-0.96677,0.191305,0.0549669,0.651299,-0.0918836,-0.075612,-0.749434,-0.374722,-13.6632,-97.9703
1,1626619787743,2.37113,-0.0721088,9.5307,0.00442863,0.00987649,-0.0215724,-0.976768,0.194191,0.0589473,0.650983,-0.0920408,-0.0755079,-0.749699,-0.390209,-13.6691,-98.016
1,1626619787944,2.38201,-0.074829,9.5033,0.00321567,-0.00915528,-0.00195503,-0.973926,0.196355,0.0543185,0.650703,-0.092316,-0.075407,-0.749918,-0.415308,-13.6856,-98.0538
1,1626619788144,2.38105,-0.10446,9.55511,-0.00890494,-0.015384,-0.0131533,-0.968883,0.19874,0.0548042,0.649643,-0.092832,-0.0756375,-0.750749,-0.415611,-13.7486,-98.2089
1,1626619788345,2.39146,-0.0885773,9.54402,-0.00219196,0.00217557,-0.0099361,-0.96668,0.198961,0.0599187,0.649138,-0.093237,-0.0756975,-0.75113,-0.43245,-13.7887,-98.2795
1,1626619788545,2.33907,-0.0517728,9.53313,0.00755191,0.000469387,0.00430942,-0.969481,0.189011,0.0571542,0.648713,-0.0933378,-0.075696,-0.751485,-0.432466,-13.7977,-98.3434
1,1626619788746,2.34192,-0.0713368,9.53145,0.0034079,0.0194624,-0.00106245,-0.98451,0.186917,0.0581844,0.648592,-0.0929622,-0.0753997,-0.751666,-0.426949,-13.7426,-98.3686
1,1626619788946,2.34587,-0.0641113,9.52272,-0.00150055,0.0111178,-0.0131115,-0.981592,0.199332,0.0609718,0.648346,-0.0932912,-0.0753132,-0.751846,-0.455534,-13.7649,-98.4
1,1626619789146,2.35377,-0.0912027,9.5418,-0.00657737,0.00929534,-0.00612289,-0.966694,0.201557,0.0623832,0.647752,-0.0931865,-0.0752432,-0.752378,-0.442457,-13.7509,-98.4937
1,1626619789347,2.37066,-0.0569417,9.52958,0.0056684,-0.00468791,0.00793785,-0.974435,0.194282,0.0616203,0.647454,-0.0932515,-0.0752901,-0.752621,-0.437832,-13.7603,-98.5386
1,1626619789547,2.36762,-0.0822322,9.5265,0.00798702,-0.0122845,0.0142947,-0.972219,0.186546,0.0544423,0.647042,-0.093257,-0.075295,-0.752975,-0.430144,-13.7613,-98.6022
1,1626619789748,2.36487,-0.0569827,9.51859,-0.00325143,0.00903756,-0.0069201,-0.974476,0.196709,0.0591866,0.646706,-0.0932463,-0.075359,-0.753258,-0.417424,-13.7654,-98.6545
1,1626619789948,2.36571,-0.0527998,9.54653,-0.00742972,0.00661612,-0.00343621,-0.971751,0.196407,0.0545339,0.646366,-0.0933492,-0.0752824,-0.753544,-0.425822,-13.7689,-98.7047
1,1626619790149,2.36014,-0.0733697,9.5211,-0.00480562,0.00474304,0.013335,-0.981373,0.201498,0.0536538,0.646068,-0.093342,-0.0749738,-0.753832,-0.446824,-13.7452,-98.7501
1,1626619790349,2.34809,-0.0360723,9.55734,-0.00490397,0.00502169,0.000275672,-0.978778,0.201327,0.0514432,0.6457,-0.0933257,-0.0750279,-0.754144,-0.433967,-13.7481,-98.8073
1,1626619790549,2.35453,-0.074858,9.55613,-0.00236481,0.0102311,-0.0024125,-0.981681,0.191676,0.0560201,0.645225,-0.0933731,-0.0748035,-0.754567,-0.448553,-13.7357,-98.879
1,1626619790750,2.3435,-0.0983948,9.55721,-0.00518858,0.00982285,-0.00598729,-0.964162,0.188538,0.0502923,0.644826,-0.0934027,-0.0749264,-0.754892,-0.43262,-13.7477,-98.9402
1,1626619790950,2.34694,-0.0684539,9.55019,0.0098601,-0.0047937,-0.0100017,-0.969364,0.191476,0.0571771,0.644534,-0.0933976,-0.074983,-0.755136,-0.421822,-13.7517,-98.9854
1,1626619791151,2.34459,-0.060265,9.54623,0.0139192,-0.0105158,-0.00863075,-0.968883,0.19874,0.0548042,0.644265,-0.0934687,-0.0753137,-0.755324,-0.393186,-13.7828,-99.0264
1,1626619791351,2.37019,-0.0737521,9.55044,-0.00913441,-0.00472218,-0.0201672,-0.978736,0.198899,0.0538786,0.643992,-0.093365,-0.075352,-0.755565,-0.376728,-13.7767,-99.0704
1,1626619791552,2.38707,-0.0826752,9.55935,0.00427067,0.00533015,-0.0182658,-0.98047,0.208537,0.0488555,0.643713,-0.0933931,-0.0750869,-0.755826,-0.397079,-13.7595,-99.1121
1,1626619791752,2.35416,-0.0884268,9.53024,0.0127181,0.0155672,-0.00364482,-0.974656,0.186757,0.0591101,0.643266,-0.0934107,-0.0752118,-0.756192,-0.379117,-13.7706,-99.1809
1,1626619791952,2.3639,-0.092285,9.54335,0.00934601,0.00156164,-0.0229374,-0.971738,0.199172,0.0618975,0.642874,-0.0935727,-0.0754369,-0.756483,-0.364457,-13.8019,-99.2389
1,1626619792153,2.36185,-0.0498379,9.53909,-0.00397712,-0.00541508,-0.02473,-0.974877,0.205207,0.0346461,0.642456,-0.0935052,-0.075546,-0.756836,-0.341858,-13.8043,-99.3047
1,1626619792353,2.32812,-0.0895967,9.49619,-0.00180602,-0.0189722,0.011918,-0.978957,0.191374,0.0513683,0.641484,-0.093851,-0.075528,-0.757618,-0.351991,-13.8338,-99.4473
1,1626619792554,2.37334,-0.0879877,9.5462,0.00908822,-0.014326,-0.00374019,-0.969481,0.189011,0.0571542,0.640941,-0.0943155,-0.0759973,-0.757973,-0.336079,-13.91,-99.5234
1,1626619792754,2.39294,-0.0864163,9.52379,0.00855625,0.0102714,-0.00554472,-0.971945,0.189051,0.0569228,0.640563,-0.0945939,-0.0763723,-0.75822,-0.317216,-13.9626,-99.5772
1,1626619792954,2.35848,-0.131939,9.55948,0.00277311,-0.0148386,0.0230208,-0.964334,0.196457,0.0601272,0.641374,-0.0943508,-0.0764768,-0.757555,-0.304484,-13.9487,-99.4578
1,1626619793155,2.40018,-0.0881377,9.51858,0.0203133,0.0166506,-0.00780225,-0.964609,0.199314,0.0674748,0.641078,-0.0944118,-0.0763908,-0.757806,-0.31124,-13.9477,-99.5017
1,1626619793355,2.40639,-0.0679762,9.50882,0.00858903,0.00713617,-0.0041917,-0.96668,0.198961,0.0599187,0.640758,-0.0944332,-0.0765064,-0.758062,-0.296638,-13.9584,-99.5508
1,1626619793555,2.36088,-0.0622884,9.53824,-0.0076294,0.00808984,-0.0144064,-0.979335,0.189171,0.0562286,0.640363,-0.0945662,-0.0765617,-0.758373,-0.294557,-13.9744,-99.609
1,1626619793756,2.39675,-0.032808,9.5026,-0.00197738,-0.00419617,0.0153005,-0.974111,0.206869,0.0666178,0.641777,-0.0945954,-0.0769527,-0.757135,-0.288826,-14.0055,-99.3927
1,1626619793956,2.47369,-0.0875504,9.55195,0.000691414,0.00715703,-0.005503,-0.945114,0.240676,0.0646006,0.65474,-0.0945741,-0.0798037,-0.745656,-0.285521,-14.2138,-97.3934
1,1626619794157,2.44017,-0.0923154,9.51021,0.005503,-0.00809878,0.000879169,-0.942754,0.235575,0.0623447,0.654527,-0.0947235,-0.0799825,-0.745805,-0.277565,-14.2405,-97.4242
1,1626619794357,2.46276,-0.0720161,9.20413,0.00768304,-0.00849217,-0.00100583,-0.939953,0.245525,0.0651092,0.658916,-0.0933518,-0.0798207,-0.742121,-0.268737,-14.1078,-96.7641
1,1626619794557,2.40534,-0.0486799,9.50575,0.0125065,0.0146896,-0.0178486,-0.94007,0.243061,0.0650863,0.658569,-0.0933141,-0.0797208,-0.742445,-0.267674,-14.097,-96.819
1,1626619794758,2.4048,-0.0833262,9.49636,-0.00440776,0.00134557,0.00223517,-0.934675,0.25284,0.0656407,0.65828,-0.0932124,-0.0795773,-0.742729,-0.266462,-14.0773,-96.866
1,1626619794958,2.39099,-0.0671541,9.51347,0.00326931,0.00225902,-0.0123352,-0.939836,0.24799,0.0651321,0.657974,-0.093045,-0.0795606,-0.743023,-0.248751,-14.0617,-96.9173
1,1626619795159,2.42894,-0.0354724,9.53811,0.00415593,0.00144392,-0.00500679,-0.934765,0.245184,0.0606889,0.657552,-0.0926591,-0.0791702,-0.743486,-0.244014,-13.9986,-96.9899
1,1626619795359,2.4206,-0.0901032,9.61612,0.00668019,0.0121966,-0.00614971,-0.944749,0.245474,0.0622048,0.657297,-0.0925914,-0.0788037,-0.743759,-0.265571,-13.9648,-97.0302
1,1626619795559,2.37312,-0.0576349,9.53116,0.00842959,0.0318289,-0.0198513,-0.944776,0.250666,0.0671337,0.657053,-0.0924201,-0.0786151,-0.744016,-0.263766,-13.9357,-97.0712
1,1626619795760,2.38002,-0.0710118,9.51771,0.0151783,-0.0106424,0.00038892,-0.944776,0.250666,0.0671337,0.656803,-0.0923943,-0.0786228,-0.744239,-0.256291,-13.9341,-97.1108
1,1626619795960,2.42014,-0.104879,9.5343,0.0115648,0.00787973,0.00490397,-0.942052,0.250364,0.062482,0.656575,-0.0922809,-0.0786181,-0.744455,-0.243415,-13.924,-97.1486
1,1626619796161,2.39137,-0.0769319,9.53527,-0.0040099,0.00602752,-0.00597984,-0.947343,0.245645,0.064415,0.656048,-0.0922815,-0.0787138,-0.744909,-0.225097,-13.9316,-97.2311
1,1626619796361,2.38007,-0.070581,9.52396,0.00405014,-0.0144705,-0.014317,-0.952153,0.24819,0.063975,0.65584,-0.0924767,-0.0785374,-0.745087,-0.251806,-13.9351,-97.2595
1,1626619796561,2.38591,-0.0922582,9.5141,0.00135303,0.000247359,-0.00225008,-0.947096,0.247979,0.0619963,0.655548,-0.0926133,-0.0783178,-0.745349,-0.276077,-13.9303,-97.3019
1,1626619796762,2.38891,-0.0838105,9.5618,0.00224411,0.000186265,-0.00392944,-0.944749,0.245474,0.0622048,0.655219,-0.0925723,-0.0782144,-0.745654,-0.27558,-13.9189,-97.3537
1,1626619796962,2.41052,-0.0983198,9.53942,0.0129715,-0.00159591,0.00418574,-0.942313,0.250626,0.0673651,0.654857,-0.0926086,-0.0781187,-0.745978,-0.279857,-13.9149,-97.4093
1,1626619797163,2.38953,-0.083585,9.52808,0.00404716,0.00599921,-0.00857562,-0.952139,0.245594,0.0615106,0.654558,-0.0924648,-0.0781844,-0.746252,-0.257158,-13.9076,-97.4588
1,1626619797363,2.37719,-0.0721233,9.54959,0.00545234,0.013338,-0.00489056,-0.937476,0.24289,0.0628761,0.65416,-0.0924121,-0.0781902,-0.746606,-0.244949,-13.9036,-97.5219
1,1626619797564,2.38831,-0.105248,9.5104,-0.00998825,0.00621677,-0.00620782,-0.934792,0.250375,0.0656178,0.653866,-0.0924561,-0.078239,-0.746853,-0.238573,-13.9112,-97.5669
1,1626619797764,2.3856,-0.0681058,9.5462,-0.0157133,-0.000472367,-0.0106558,-0.942416,0.245565,0.0648778,0.653544,-0.09249,-0.0782951,-0.747125,-0.230226,-13.9185,-97.6166
1,1626619797964,2.38631,-0.0572914,9.52979,-0.000844896,0.0107765,-0.00247955,-0.94243,0.248161,0.0673422,0.653375,-0.092467,-0.0782419,-0.747281,-0.229847,-13.9125,-97.6432
1,1626619798165,2.39882,-0.0849536,9.52285,0.0147298,0.00282526,-0.000318885,-0.937985,0.240817,0.0701779,0.653259,-0.0925877,-0.0780377,-0.747389,-0.254906,-13.9075,-97.6584
1,1626619798365,2.37454,-0.0797874,9.53609,0.00693947,0.00242293,-0.0232279,-0.942547,0.245696,0.0673193,0.652976,-0.0926675,-0.0783175,-0.747598,-0.231364,-13.9358,-97.7017
1,1626619798566,2.39475,-0.0581464,9.54812,0.0102058,0.00461787,-0.00276864,-0.942443,0.250757,0.0698067,0.652556,-0.0925768,-0.0782311,-0.747984,-0.223832,-13.9215,-97.7686
1,1626619798766,2.38804,-0.0814315,9.52806,0.0165418,0.011377,-0.00894219,-0.944893,0.248201,0.0671108,0.652301,-0.0924756,-0.0781277,-0.74823,-0.220097,-13.9049,-97.8099
1,1626619798966,2.36699,-0.0642408,9.55954,-0.00413209,0.00724345,-0.00881255,-0.939444,0.247598,0.0578074,0.652164,-0.0925316,-0.0778619,-0.74837,-0.245094,-13.8897,-97.8293
1,1626619799167,2.45472,-0.0775226,9.43651,-0.00653565,0.0108287,-0.0249848,-0.939457,0.250193,0.0602718,0.651852,-0.092564,-0.0777865,-0.748646,-0.248298,-13.8869,-97.8771
1,1626619799367,2.38238,-0.0807516,9.50003,-0.0024572,0.00943691,0.00108182,-0.944281,0.255334,0.0622963,0.651747,-0.0926301,-0.0776993,-0.748738,-0.259107,-13.8861,-97.8919
1,1626619799568,2.38794,-0.0619062,9.52066,0.00709146,0.0109166,0.00245571,-0.944398,0.252869,0.0622734,0.651699,-0.0925653,-0.0774319,-0.748815,-0.276484,-13.8602,-97.8999
1,1626619799768,2.35897,-0.0806208,9.54465,-0.00863224,0.00959933,0.00946969,-0.949181,0.250222,0.0569046,0.651354,-0.092683,-0.0775317,-0.74909,-0.270455,-13.8781,-97.9514
1,1626619799968,2.38747,-0.0612376,9.52546,0.0209689,0.0056535,-0.0212267,-0.946834,0.247718,0.0571131,0.651123,-0.0925899,-0.0776482,-0.749291,-0.248625,-13.8789,-97.9894
1,1626619800169,2.3826,-0.0811124,9.54584,-0.0174999,0.00725091,-0.0166684,-0.939822,0.245395,0.0626676,0.650815,-0.092636,-0.0776153,-0.749556,-0.249281,-13.8805,-98.0362
1,1626619800369,2.39609,-0.0906745,9.53488,0.009498,-0.00414252,0.00162572,-0.932054,0.247478,0.0585016,0.650595,-0.0928643,-0.0775804,-0.749723,-0.265992,-13.8979,-98.0659
1,1626619800570,2.38344,-0.103947,9.55176,0.00483394,-0.00841767,0.00181794,-0.944344,0.242486,0.0524157,0.650242,-0.0928308,-0.0776928,-0.750021,-0.246874,-13.9036,-98.1216
1,1626619800770,2.39237,-0.0728617,9.52945,0.0152215,0.0125006,-0.00397563,-0.951892,0.247928,0.0590919,0.649987,-0.092923,-0.0778766,-0.750212,-0.23314,-13.9256,-98.16
1,1626619800971,2.39795,-0.0907577,9.52431,-0.00187755,-0.00123829,0.00608117,-0.944474,0.242617,0.0548572,0.649681,-0.0928537,-0.0777382,-0.750499,-0.234079,-13.9092,-98.2083
1,1626619801171,2.39787,-0.103588,9.53699,0.0127703,0.00309348,-0.0126377,-0.946587,0.250052,0.0546945,0.649429,-0.0929269,-0.0777869,-0.750704,-0.230743,-13.9193,-98.2461
1,1626619801371,2.40555,-0.0878122,9.56339,0.0184283,-0.00342578,-0.011532,-0.946429,0.244729,0.047324,0.649183,-0.0928886,-0.0778329,-0.750916,-0.219095,-13.9195,-98.285
1,1626619801572,2.35853,-0.0531078,9.52078,-0.00530779,0.00623018,-0.0022158,-0.949284,0.245162,0.0544173,0.649069,-0.0929775,-0.0777174,-0.751015,-0.233973,-13.9186,-98.3006
1,1626619801772,2.38272,-0.0644633,9.5288,-0.00184327,-0.00142753,-0.00623167,-0.951383,0.250001,0.0517901,0.648901,-0.092875,-0.0775401,-0.751192,-0.23836,-13.8963,-98.3281
1,1626619801973,2.37487,-0.0602701,9.56916,0.0093475,-0.00386089,0.0041768,-0.939313,0.247467,0.0553658,0.648655,-0.0926273,-0.0774828,-0.751441,-0.21947,-13.8704,-98.3708
1,1626619802173,2.3497,-0.0765462,9.52516,0.00951737,-0.0159875,-0.00574589,-0.948541,0.252164,0.0471613,0.648256,-0.0927133,-0.077579,-0.751764,-0.210209,-13.8853,-98.4311
1,1626619802373,2.37383,-0.0758081,9.56067,-0.00851452,0.00995845,-0.00567287,-0.94669,0.244991,0.0522071,0.647922,-0.0928431,-0.0776934,-0.752025,-0.203956,-13.9054,-98.4808
1,1626619802574,2.35526,-0.0645075,9.50975,0.00426769,0.00166297,-0.0034526,-0.940889,0.251782,0.0429724,0.647637,-0.0928683,-0.0774866,-0.752288,-0.218694,-13.8921,-98.5237
1,1626619802774,2.35993,-0.0487251,9.53087,0.0105217,0.00360012,0.0189707,-0.946023,0.241741,0.0375349,0.64744,-0.0929747,-0.0774052,-0.752453,-0.230393,-13.8953,-98.552
1,1626619802975,2.35805,-0.0660571,9.53101,0.00232607,0.00399351,-0.00521243,-0.948707,0.234255,0.0347933,0.647259,-0.0928424,-0.0773044,-0.752636,-0.225566,-13.8762,-98.5822
1,1626619803175,2.38865,-0.0940332,9.51369,0.00870079,0.00626743,0.00786483,-0.946154,0.241872,0.0399764,0.646873,-0.0928028,-0.0773805,-0.752964,-0.208561,-13.8786,-98.6427
1,1626619803375,2.37568,-0.0619449,9.55032,0.0233695,-0.0206813,0.000235438,-0.951315,0.237022,0.0394679,0.646619,-0.0928487,-0.0776715,-0.753147,-0.181774,-13.9046,-98.6819
1,1626619803576,2.35346,-0.0693621,9.48616,-0.0167385,0.00433922,-0.0167877,-0.94601,0.239145,0.0350704,0.646429,-0.0928926,-0.0775426,-0.753317,-0.192929,-13.8987,-98.71
1,1626619803776,2.36425,-0.0942078,9.5192,0.00132471,-0.0144109,-0.014393,-0.943952,0.242093,0.045091,0.646234,-0.0933167,-0.0776299,-0.753424,-0.214446,-13.9425,-98.7324
1,1626619803977,2.37223,-0.0994965,9.52902,-0.000290573,0.00051856,-0.0124812,-0.947771,0.253974,0.0349763,0.645289,-0.0938777,-0.0778034,-0.754146,-0.224769,-14.005,-98.8681
1,1626619804177,2.39173,-0.0822142,9.5551,0.0128448,0.0179589,0.00173003,-0.940574,0.241137,0.0282314,0.644938,-0.0940135,-0.0777022,-0.75444,-0.237534,-14.0094,-98.9194
1,1626619804378,2.46707,0.151675,9.44643,-0.00465661,-0.0889301,-0.0292256,-0.943271,0.236247,0.0279543,0.643197,-0.095415,-0.0786127,-0.755655,-0.232457,-14.2012,-99.1636
1,1626619804578,2.48881,0.0181861,9.41811,-0.0015676,-0.00997931,-0.020422,-0.94601,0.239145,0.0350704,0.642565,-0.0968348,-0.0796768,-0.7559,-0.23603,-14.4059,-99.2366
1,1626619804778,2.45739,-0.0953409,9.52777,-0.00743717,0.00205934,0.00564754,-0.937228,0.245224,0.0604575,0.641967,-0.097167,-0.0799323,-0.756338,-0.227467,-14.4544,-99.3231
1,1626619804979,2.44399,-0.061953,9.52344,0.0155747,-0.0240505,-0.00955314,-0.949395,0.164919,0.076099,0.641867,-0.0973971,-0.0799292,-0.756394,-0.243554,-14.4745,-99.3341
1,1626619805179,2.46003,-0.0631777,9.54005,0.00273287,-0.00436753,0.00038296,-0.936115,0.231198,0.0286027,0.641479,-0.0975396,-0.0800269,-0.756694,-0.238353,-14.4945,-99.3912
1,1626619805380,2.46144,-0.0772132,9.50893,0.0111476,0.0191316,0.00453293,-0.934895,0.245315,0.0631304,0.641469,-0.0975663,-0.0799666,-0.756706,-0.245545,-14.4923,-99.392
1,1626619805580,2.4383,-0.0839386,9.57137,0.00247955,0.00151694,-0.0122145,-0.932797,0.240476,0.0657576,0.641424,-0.0975608,-0.0799888,-0.756742,-0.242264,-14.4935,-99.3992
1,1626619805780,2.44414,-0.0500708,9.52486,0.00983626,-0.015001,-0.00508279,-0.929604,0.250034,0.0611975,0.641399,-0.0975762,-0.0799477,-0.756766,-0.246606,-14.4918,-99.4026
1,1626619805981,2.49333,-0.110949,9.5306,-0.00701696,-0.00267774,0.00296235,-0.929968,0.245235,0.0635933,0.641312,-0.0978137,-0.0803689,-0.756764,-0.22598,-14.5442,-99.4126
1,1626619806181,2.45092,-0.0964871,9.51657,0.0115007,-0.0132009,-0.000235438,-0.927519,0.24779,0.0662891,0.640921,-0.0979411,-0.0805154,-0.757064,-0.215154,-14.5665,-99.4708
1,1626619806382,2.47566,-0.0879978,9.53703,0.00726134,-0.00389516,0.00638664,-0.929631,0.255225,0.0661264,0.640689,-0.0980587,-0.0803196,-0.757265,-0.237025,-14.5623,-99.5035
1,1626619806582,2.47043,-0.0968621,9.4156,0.00862926,0.0071913,-0.00305325,-0.942637,0.23804,0.0623676,0.640101,-0.0981457,-0.0799242,-0.757793,-0.26721,-14.5407,-99.5909
1,1626619806783,2.45724,-0.0916117,9.52729,-0.0159055,0.00656992,0.00129342,-0.922592,0.247711,0.0667519,0.640001,-0.0984226,-0.0799981,-0.757834,-0.280046,-14.5707,-99.6011
1,1626619806983,2.44823,-0.0787618,9.48178,-0.000785291,0.00224411,-0.0215098,-0.939457,0.250193,0.0602718,0.639619,-0.0987048,-0.0799676,-0.758123,-0.297003,-14.5934,-99.6541
1,1626619807183,2.46896,-0.0624956,9.46834,0.0143573,0.0097394,0.000996888,-0.93504,0.248041,0.0680364,0.639086,-0.0986669,-0.0800896,-0.758564,-0.272773,-14.5994,-99.7372
1,1626619807384,2.47665,-0.0912422,9.55248,0.0144094,0.00541061,-0.00612438,-0.930594,0.240698,0.0708722,0.638762,-0.0987097,-0.0802773,-0.758812,-0.253032,-14.6172,-99.7867
1,1626619807584,2.47948,-0.0721056,9.50514,-0.0113517,0.0103101,-0.00186116,-0.932707,0.248132,0.0707094,0.63865,-0.0987633,-0.0802348,-0.758903,-0.25873,-14.6188,-99.8027
1,1626619807785,2.47798,-0.0817555,9.49308,0.00995398,-0.0136733,-0.024128,-0.937476,0.24289,0.0628761,0.637902,-0.0991414,-0.0802097,-0.759486,-0.275299,-14.6507,-99.91
1,1626619807985,2.45876,-0.0808491,9.54644,0.00263602,-0.008443,-0.00506342,-0.930333,0.240436,0.0659891,0.637731,-0.0991131,-0.0802348,-0.759631,-0.267518,-14.6501,-99.9369
1,1626619808185,2.48501,-0.0803954,9.57419,0.00451803,0.00369549,-0.00359267,-0.944632,0.247939,0.0622277,0.637473,-0.099251,-0.080273,-0.759825,-0.269648,-14.6652,-99.9738
1,1626619808386,2.47231,-0.0704578,9.5089,0.0108495,-0.00380725,-0.0104845,-0.945114,0.240676,0.0646006,0.637288,-0.0993346,-0.0802912,-0.759967,-0.270802,-14.674,-100.001
1,1626619808586,2.47134,-0.0978237,9.50723,0.00443906,0.0134438,-0.00308603,-0.938178,0.2281,0.0627388,0.637201,-0.0993145,-0.0803377,-0.760038,-0.263396,-14.6757,-100.014
1,1626619808787,2.34483,0.0475185,9.11717,0.00791699,0.586012,0.0324369,-0.969563,0.230561,0.0499871,0.638621,-0.0875101,-0.0702833,-0.761292,-0.279735,-12.8859,-99.9843
1,1626619808987,2.33367,-0.10183,9.77796,-0.00317395,0.0136539,-0.0039041,-0.945334,0.23315,0.0620904,0.63505,-0.0955177,-0.0766368,-0.762702,-0.260779,-14.066,-100.404
1,1626619809187,2.17627,-0.514209,9.53169,0.023064,-0.018014,0.0537738,-0.971368,0.230096,-0.00660872,0.637462,-0.095213,-0.0765899,-0.76073,-0.287073,-14.0347,-100.041
1,1626619809388,2.47223,0.0429992,9.63321,-0.00284761,-0.0210762,-0.0555277,-0.95598,0.23684,0.0341219,0.636842,-0.0954011,-0.0767691,-0.761208,-0.273842,-14.0648,-100.133
1,1626619809588,2.38869,-0.102874,9.55373,0.00123978,0.00245422,-0.016591,-0.956544,0.245151,0.0512815,0.635758,-0.0957289,-0.0766909,-0.76208,-0.285425,-14.0885,-100.292
1,1626619809789,2.36236,-0.0688744,9.53734,0.00989884,0.0031665,-0.0203848,-0.951992,0.0900557,0.0583215,0.635264,-0.0957263,-0.0766896,-0.762493,-0.276004,-14.0883,-100.368
1,1626619809989,2.46557,0.0273119,9.39615,-0.000776351,-0.00545382,-0.00118762,-0.968377,0.229681,-0.0603002,0.63746,-0.0958462,-0.0771951,-0.760591,-0.281743,-14.1356,-100.032
1,1626619810190,2.3738,-0.0827158,9.52883,-0.000928342,-0.0069648,-0.00331551,-0.976538,0.22799,-0.0488095,0.637529,-0.0958634,-0.0771046,-0.76054,-0.292405,-14.1304,-100.02
1,1626619810390,2.36695,-0.14852,9.5221,-0.00487715,-0.00597239,-0.00205189,-0.965329,0.241965,-0.0599544,0.640691,-0.0959399,-0.077277,-0.757852,-0.343108,-14.1486,-99.5348
1,1626619810590,2.55673,-0.053414,9.64396,0.0333235,0.00424832,0.0971466,-0.955241,0.246735,-0.058983,0.643454,-0.0957037,-0.07761,-0.755503,-0.34819,-14.1515,-99.1155
1,1626619810791,2.40291,-0.000719703,9.50922,-0.0121161,0.0235274,0.0133157,-0.956038,0.250116,-0.0418692,0.645469,-0.0955963,-0.0775367,-0.753803,-0.384885,-14.1356,-98.8065
1,1626619810991,2.3959,-0.0636324,9.54091,-0.0171065,-0.00994355,-0.0116527,-0.945599,0.262281,-0.0408291,0.646363,-0.0955991,-0.0775348,-0.753036,-0.402399,-14.1352,-98.6683
1,1626619811192,2.21861,-0.503952,9.62024,0.0118226,0.00743866,0.0277668,-0.934877,0.268843,-0.00544441,0.650525,-0.0946033,-0.0777408,-0.749549,-0.386446,-14.0616,-98.0436
1,1626619811392,2.45564,-0.104132,9.49939,0.0108048,0.00493377,-0.00344217,-0.928343,0.256363,0.0883318,0.638891,-0.0992349,-0.0793847,-0.758729,-0.375234,-14.5971,-99.7535
1,1626619811593,2.44441,-0.0886198,9.5242,-0.00206083,0.00715703,0.00653267,-0.9165,0.272131,0.1116,0.638749,-0.099357,-0.0794625,-0.758824,-0.374947,-14.6138,-99.7731
1,1626619811793,2.44832,-0.0892074,9.51989,0.0228897,-0.00175536,0.00186265,-0.93996,0.144367,0.111232,0.638647,-0.0993623,-0.0795678,-0.758897,-0.364012,-14.6221,-99.789
1,1626619811994,2.43076,-0.0764083,9.5896,0.00848621,0.00806302,0.000314415,-0.930423,0.258755,0.0390835,0.638191,-0.099492,-0.0796421,-0.759257,-0.358402,-14.6393,-99.8567
1,1626619812194,2.47333,-0.0754921,9.52723,-0.00737458,-0.0138029,0.000964105,-0.927862,0.263627,0.0859589,0.63807,-0.0996836,-0.0794371,-0.759355,-0.388966,-14.6411,-99.8708
1,1626619812394,2.46186,-0.0620809,9.50386,-0.000296533,-0.0234902,-0.0210553,-0.923367,0.271727,0.10114,0.638052,-0.0997537,-0.0795962,-0.759344,-0.37988,-14.6591,-99.8726
1,1626619812595,2.44821,-0.0745877,9.5193,-0.00475049,-0.0147164,-0.0187337,-0.91255,0.260119,0.119273,0.637766,-0.0998757,-0.0795409,-0.759574,-0.388548,-14.6659,-99.9139
1,1626619812795,2.46335,-0.0767032,9.48619,-0.000740588,-0.00782758,-0.0264063,-0.901161,0.263431,0.139986,0.637652,-0.100072,-0.0793177,-0.759667,-0.421258,-14.6668,-99.9267
1,1626619812996,2.44938,-0.0937357,9.52536,0.00778735,0.0252038,-0.0103578,-0.906128,0.271298,0.146916,0.637393,-0.0998735,-0.0792089,-0.759922,-0.410523,-14.6413,-99.97
1,1626619813196,2.45467,-0.0728838,9.48366,0.0106871,-0.0111297,-0.0112802,-0.902075,0.264347,0.157077,0.637132,-0.100037,-0.0791647,-0.760124,-0.421833,-14.6526,-100.007
1,1626619813397,2.45487,-0.0520648,9.53023,0.0141636,-0.00328273,0.0249058,-0.903836,0.279177,0.156983,0.637096,-0.100077,-0.0789406,-0.760172,-0.44415,-14.6395,-100.011
1,1626619813597,2.44398,-0.0544527,9.51578,0.000777841,0.014241,-0.0129193,-0.903953,0.276712,0.15696,0.637011,-0.100228,-0.0788733,-0.76023,-0.460067,-14.6479,-100.02
1,1626619813798,2.45713,-0.0753971,9.51355,0.00715703,-0.0187531,-0.0134975,-0.902336,0.264609,0.16196,0.63687,-0.100448,-0.0786529,-0.760342,-0.493806,-14.6511,-100.037
1,1626619813998,2.46575,-0.115096,9.49864,0.0155315,0.0100762,-0.00511408,-0.908703,0.191095,0.168367,0.636631,-0.100538,-0.0784782,-0.760549,-0.51153,-14.6463,-100.071
1,1626619814199,2.45351,-0.0806,9.50111,0.00997335,0.00287145,-0.0212029,-0.911994,0.176625,0.126283,0.636535,-0.100606,-0.0784613,-0.760622,-0.516412,-14.6512,-100.084
1,1626619814399,2.43928,-0.0836591,9.45714,-0.00704378,-0.00142753,0.0290647,-0.910334,0.257745,0.121923,0.636323,-0.100853,-0.078534,-0.760759,-0.524716,-14.6785,-100.112
1,1626619814599,2.45242,-0.108252,9.49599,0.0168696,-0.00131577,0.00567734,-0.90752,0.2651,0.122223,0.6363,-0.100864,-0.0785888,-0.760771,-0.520254,-14.6836,-100.116
1,1626619814800,2.46158,-0.105537,9.50039,-0.00185519,-0.00358224,-0.00111461,-0.905304,0.262726,0.124874,0.636063,-0.100762,-0.07843,-0.760999,-0.521886,-14.663,-100.153
1,1626619815000,2.4463,-0.102091,9.50944,0.0166729,0.00723153,-0.0102833,-0.915941,0.263671,0.138597,0.635716,-0.100868,-0.0785449,-0.761263,-0.512915,-14.6811,-100.205
1,1626619815201,2.45568,-0.0782212,9.49335,0.0070855,-0.0060901,0.00732988,-0.907808,0.270553,0.132035,0.635648,-0.10089,-0.0786477,-0.761306,-0.504108,-14.6907,-100.215
1,1626619815401,2.46496,-0.0736494,9.51852,-0.00478327,0.00142902,-0.018166,-0.920648,0.271276,0.140645,0.635391,-0.100993,-0.07863,-0.761509,-0.508507,-14.6986,-100.252
1,1626619815602,2.46758,-0.111797,9.51068,0.00671297,0.00530779,0.000248849,-0.913532,0.274014,0.148686,0.635158,-0.100803,-0.0786859,-0.761723,-0.484406,-14.6861,-100.292
1,1626619815802,2.45093,-0.0992304,9.50457,0.0171423,-0.00953227,0.00139475,-0.903651,0.268663,0.144683,0.634942,-0.10098,-0.0786285,-0.761886,-0.498803,-14.6977,-100.321
1,1626619816003,2.43577,-0.0725387,9.47243,0.00671446,0.000779331,-0.000348687,-0.903521,0.268532,0.142242,0.634844,-0.100792,-0.078531,-0.762002,-0.491171,-14.6739,-100.34
1,1626619816204,2.43608,-0.0691457,9.4893,0.00619143,0.00170767,-0.00257641,-0.906128,0.271298,0.146916,0.634678,-0.100754,-0.0786984,-0.762128,-0.470048,-14.683,-100.366
1,1626619816405,2.44079,-0.0942238,9.53199,0.00739545,0.00985116,-0.000299513,-0.900823,0.273421,0.142519,0.634216,-0.100862,-0.0786619,-0.762502,-0.472482,-14.6902,-100.435
1,1626619816605,2.46306,-0.0766051,9.50263,0.0125468,0.00953227,-0.00559539,-0.906259,0.271429,0.149358,0.633959,-0.100796,-0.078859,-0.762704,-0.444765,-14.699,-100.476
1,1626619816806,2.44099,-0.0652135,9.48784,0.0141323,0.00503063,-0.0310123,-0.908475,0.273803,0.146708,0.633809,-0.10073,-0.0789095,-0.762832,-0.4323,-14.697,-100.5
1,1626619817006,2.45555,-0.0672012,9.50579,0.00908822,-0.00961721,-0.00415593,-0.906273,0.274025,0.151822,0.633757,-0.100778,-0.0791322,-0.762846,-0.415068,-14.7178,-100.508
1,1626619817206,2.4411,-0.0715898,9.49269,0.00353455,0.000305474,-0.00991821,-0.908434,0.266016,0.139314,0.633543,-0.100609,-0.0792206,-0.763037,-0.390019,-14.7094,-100.545
1,1626619817407,2.47013,-0.0986625,9.52403,-0.0105992,0.00284463,0.000455976,-0.903885,0.263733,0.144637,0.633203,-0.100664,-0.0792187,-0.763312,-0.387657,-14.7143,-100.595
1,1626619817607,2.46032,-0.0773521,9.48911,-0.00982732,0.00107586,-0.010252,-0.915694,0.266005,0.136179,0.633059,-0.100438,-0.0790581,-0.763478,-0.381906,-14.6824,-100.621
1,1626619817808,2.48466,-0.0812407,9.50952,-0.0159457,-0.0116974,0.00415593,-0.911393,0.261388,0.14392,0.632942,-0.100331,-0.0788531,-0.76361,-0.389789,-14.6579,-100.641
1,1626619818008,2.48313,-0.104671,9.51747,-0.00640601,0.000950694,-0.0141352,-0.913622,0.266358,0.143735,0.632778,-0.100152,-0.0788415,-0.76377,-0.373973,-14.6412,-100.669
1,1626619818208,2.48139,-0.088687,9.51063,0.00551641,0.0166059,-0.019975,-0.911915,0.261911,0.153687,0.632645,-0.100158,-0.0787539,-0.763889,-0.379599,-14.6353,-100.689
1,1626619818409,2.50385,-0.0889386,9.4944,0.00110865,0.0058949,0.00175238,-0.908943,0.263944,0.146616,0.632483,-0.0998736,-0.0786964,-0.764066,-0.35989,-14.6059,-100.719
1,1626619818609,2.48312,-0.0786438,9.50662,0.0122488,-0.00367463,-0.00376105,-0.911159,0.266318,0.143966,0.632153,-0.0999165,-0.0788519,-0.764318,-0.342799,-14.6213,-100.769
1,1626619818810,2.45257,-0.0653039,9.49613,0.00190735,0.00383705,-0.0118792,-0.904133,0.261399,0.147056,0.632066,-0.0999753,-0.0789441,-0.764373,-0.337333,-14.6333,-100.781
1,1626619819010,2.46302,-0.06862,9.51605,0.00470877,0.0121966,-0.0277653,-0.904016,0.263864,0.147079,0.631925,-0.0999421,-0.0790214,-0.764486,-0.325114,-14.6361,-100.804
1,1626619819210,2.46064,-0.0998231,9.51729,0.0122845,0.0173986,0.00636429,-0.915604,0.273661,0.14113,0.631807,-0.0997307,-0.079032,-0.764609,-0.305773,-14.6182,-100.826
1,1626619819411,2.45935,-0.0734644,9.50734,0.00237823,-0.00282675,-0.0167072,-0.908758,0.25343,0.134317,0.631389,-0.0999748,-0.0791909,-0.764907,-0.301951,-14.6517,-100.886
1,1626619819611,2.47055,-0.0669415,9.52962,-0.00463426,0.0171423,-0.00541508,-0.91078,0.268521,0.139106,0.631168,-0.100218,-0.0790131,-0.765075,-0.332077,-14.6604,-100.914
1,1626619819812,2.49484,-0.0663653,9.50717,0.0194252,0.0176355,-0.0241637,-0.913492,0.266227,0.141293,0.630799,-0.100279,-0.0791152,-0.765361,-0.320313,-14.6735,-100.969
1,1626619820012,2.45215,-0.0639688,9.52415,0.00696778,0.0200599,-0.015533,-0.91164,0.259054,0.146339,0.630733,-0.100363,-0.0789158,-0.765425,-0.343311,-14.6664,-100.977
1,1626619820212,2.45689,-0.0949149,9.46457,-0.00676513,-0.00819415,-0.0201672,-0.911042,0.268782,0.143989,0.630522,-0.100119,-0.0787382,-0.765649,-0.336521,-14.6317,-101.013
1,1626619820413,2.4593,-0.0670583,9.50537,0.0139281,-0.00272244,-0.01546,-0.903755,0.263602,0.142196,0.630114,-0.100315,-0.0787048,-0.765962,-0.346432,-14.6469,-101.071
1,1626619820613,2.4913,-0.0767867,9.52112,-0.00148267,-0.00685156,-0.00885427,-0.911132,0.261126,0.139037,0.629927,-0.100237,-0.0784416,-0.766154,-0.360434,-14.6207,-101.1
1,1626619820814,2.48382,-0.0818094,9.53899,-0.00377893,0.0041306,0.0107661,-0.901161,0.263431,0.139986,0.629746,-0.10009,-0.0784747,-0.766318,-0.342831,-14.6101,-101.131
1,1626619821014,2.47477,-0.0936076,9.50866,0.0031814,0.0111029,0.000418723,-0.909033,0.256287,0.141664,0.629589,-0.0999429,-0.0784297,-0.766472,-0.332602,-14.5937,-101.157
1,1626619821214,2.47624,-0.0577583,9.52756,0.00296235,-0.0113085,-0.000891089,-0.91559,0.271066,0.138666,0.62958,-0.0999721,-0.078549,-0.766462,-0.323945,-14.6051,-101.158
1,1626619821416,2.46677,-0.0482903,9.52505,-0.00607371,0.0124157,-0.00917912,-0.911496,0.256327,0.141433,0.62947,-0.0996654,-0.0785665,-0.766591,-0.296964,-14.5791,-101.181
1,1626619821616,2.48603,-0.0918539,9.50726,0.00914186,-0.00153184,-0.0259086,-0.908042,0.265623,0.13199,0.629409,-0.0993708,-0.0786848,-0.766667,-0.262825,-14.5615,-101.197
1,1626619821816,2.47626,-0.0571573,9.55463,0.0130281,0.0107408,-0.00903159,-0.913753,0.266488,0.146176,0.629362,-0.0992323,-0.0785623,-0.766736,-0.262396,-14.5401,-101.206
1,1626619822017,2.45988,-0.0949989,9.49454,0.00391006,0.00950247,-0.00509024,-0.918301,0.268771,0.140853,0.629282,-0.0991602,-0.0784885,-0.766819,-0.261994,-14.5283,-101.219
1,1626619822217,2.44699,-0.0796794,9.51796,0.0142068,0.0204995,-0.0246495,-0.918301,0.268771,0.140853,0.62906,-0.0992391,-0.0785451,-0.766985,-0.258606,-14.5396,-101.252
1,1626619822418,2.48327,-0.0653567,9.53594,0.000461936,-0.0107229,0.00469089,-0.913712,0.258701,0.138783,0.628949,-0.0991251,-0.0786167,-0.767083,-0.241388,-14.5347,-101.271
1,1626619822618,2.47652,-0.0852548,9.53078,0.0130013,0.0107571,-0.022763,-0.898724,0.268583,0.145146,0.628624,-0.0989893,-0.0784664,-0.767383,-0.238309,-14.5117,-101.322
1,1626619822818,2.47097,-0.0763672,9.50795,-0.00213981,0.00396371,-0.0127807,-0.911303,0.269044,0.148872,0.62831,-0.0988454,-0.0783033,-0.767675,-0.236019,-14.487,-101.372
1,1626619823019,2.46766,-0.0639757,9.49334,-0.0109941,-0.00861734,0.00248253,-0.913856,0.261428,0.143689,0.628066,-0.0990425,-0.0781446,-0.767865,-0.260469,-14.4931,-101.405
1,1626619823219,2.4768,-0.107055,9.52996,0.011,5.51343e-05,0.00558049,-0.901084,0.273683,0.147402,0.627976,-0.0990471,-0.0780159,-0.767952,-0.270643,-14.4841,-101.418
1,1626619823420,2.47358,-0.0907244,9.4917,0.00411421,-0.00344068,0.00810772,-0.906335,0.261177,0.141942,0.627819,-0.0989954,-0.0781861,-0.76807,-0.248411,-14.492,-101.443
1,1626619823620,2.44561,-0.0681676,9.49856,0.0160635,0.00895858,-0.00329912,-0.901463,0.27148,0.152262,0.627681,-0.0991848,-0.0783233,-0.768144,-0.247737,-14.519,-101.461
1,1626619823820,2.45121,-0.0886318,9.55664,-0.000631809,0.0159055,-0.0132054,-0.91133,0.274236,0.153801,0.627377,-0.0993266,-0.0784222,-0.768364,-0.243686,-14.539,-101.505
1,1626619824021,2.46952,-0.0712397,9.50982,-0.0169769,-0.00876188,-0.0132144,-0.914869,0.257432,0.114136,0.627098,-0.0993477,-0.0784113,-0.76859,-0.24086,-14.5401,-101.547
1,1626619824221,2.39096,-0.376176,9.49874,0.023365,0.0147015,0.0319332,-0.904065,0.274396,0.11278,0.628742,-0.0988124,-0.0783649,-0.767319,-0.236305,-14.4884,-101.308
1,1626619824422,2.44488,-0.0691375,9.47924,0.00320077,0.010708,-0.00187159,-0.91917,0.262049,0.106394,0.628976,-0.0987468,-0.078546,-0.767117,-0.219599,-14.4957,-101.274
1,1626619824622,2.46352,-0.068699,9.52904,0.00643432,0.00572354,-0.00629425,-0.916094,0.269142,0.101811,0.628757,-0.0987069,-0.0782855,-0.767329,-0.235739,-14.4732,-101.307
1,1626619824822,2.4503,-0.0836334,9.51215,0.00949055,-0.00773072,-0.00854284,-0.911064,0.274123,0.104761,0.628594,-0.0987502,-0.0781801,-0.767468,-0.24534,-14.4694,-101.331
1,1626619825023,2.45965,-0.0984055,9.51342,0.00731349,0.0185952,0.00182539,-0.908965,0.269284,0.107388,0.628212,-0.0988881,-0.0781707,-0.767763,-0.249255,-14.4811,-101.386
1,1626619825223,2.47201,-0.0422452,9.48222,-0.00549704,0.0246137,-0.00221282,-0.916445,0.261747,0.101742,0.6269,-0.0995818,-0.078209,-0.768742,-0.272917,-14.5464,-101.571
1,1626619825424,2.48556,-0.0975296,9.5232,-0.0124663,-0.00613481,-0.0249758,-0.914216,0.256778,0.101928,0.625791,-0.100189,-0.0781016,-0.769577,-0.306935,-14.5933,-101.727
1,1626619825624,2.49792,-0.0680366,9.50862,0.00260919,-0.00250042,0.00386834,-0.909275,0.254102,0.0999265,0.625325,-0.100254,-0.0783459,-0.769922,-0.280823,-14.6172,-101.798
1,1626619825824,2.50676,-0.113966,9.5173,0.00666976,0.0131965,-0.0161946,-0.914099,0.259243,0.101951,0.624256,-0.100698,-0.0782891,-0.770737,-0.298573,-14.6532,-101.95
1,1626619826025,2.50311,-0.0870222,9.49479,0.00971258,-0.00241846,0.00436306,-0.919507,0.252059,0.103861,0.624101,-0.100663,-0.0783238,-0.770864,-0.289853,-14.6527,-101.975
1,1626619826225,2.5057,-0.10628,9.46945,0.00268966,-0.0137866,0.0128433,-0.911518,0.261668,0.102205,0.623916,-0.100671,-0.0783716,-0.771007,-0.282529,-14.6569,-102.003
1,1626619826426,2.49325,-0.0750319,9.52172,-0.00663251,0.0205457,-0.00213236,-0.916418,0.256556,0.0968136,0.623627,-0.100559,-0.0783303,-0.77126,-0.272209,-14.644,-102.048
1,1626619826626,2.4893,-0.07094,9.47533,0.0213668,0.00231266,-0.0242546,-0.911856,0.251677,0.0996722,0.623474,-0.100518,-0.0783739,-0.771384,-0.262235,-14.6435,-102.072
1,1626619826827,2.4923,-0.0450062,9.51468,0.00750571,0.0139117,0.00358075,-0.916666,0.254222,0.0992322,0.623319,-0.100682,-0.0782586,-0.7715,-0.281962,-14.6499,-102.092
1,1626619827027,2.50956,-0.0986045,9.50083,0.00230819,0.0167683,-0.00922233,-0.921633,0.262089,0.106163,0.623054,-0.100799,-0.0783453,-0.77169,-0.277741,-14.6668,-102.13
1,1626619827227,2.51111,-0.101936,9.5206,0.00893027,0.00606477,-0.0211522,-0.906736,0.264314,0.107574,0.622887,-0.10072,-0.0783767,-0.771832,-0.265735,-14.6621,-102.157
1,1626619827428,2.49326,-0.07574,9.48983,-0.00212193,0.00174493,-0.00228137,-0.922142,0.260017,0.113465,0.62272,-0.100653,-0.0783639,-0.771977,-0.258601,-14.6551,-102.184
1,1626619827628,2.49899,-0.0680277,9.49753,0.00206381,0.00348985,-0.00536591,-0.912275,0.257261,0.111926,0.62244,-0.10078,-0.0783564,-0.772187,-0.263369,-14.6661,-102.223
1,1626619827829,2.4865,-0.0601004,9.54463,-0.00490248,0.00934154,-0.00810176,-0.914869,0.257432,0.114136,0.622288,-0.100852,-0.0783841,-0.772297,-0.263306,-14.6746,-102.245
1,1626619828029,2.47389,-0.0581385,9.5179,0.0063777,-0.0186339,0.00142455,-0.914725,0.254706,0.10923,0.622278,-0.100797,-0.0783476,-0.772315,-0.262322,-14.6671,-102.247
1,1626619828229,2.47937,-0.0921185,9.49032,0.00451654,0.00129789,-0.000101328,-0.909942,0.257352,0.114599,0.622,-0.100747,-0.0782924,-0.772552,-0.258182,-14.6587,-102.29
1,1626619828430,2.49268,-0.0780431,9.51732,0.0139996,-0.00225753,-0.00827164,-0.914869,0.257432,0.114136,0.621746,-0.100795,-0.0780357,-0.772776,-0.280092,-14.6445,-102.326
1,1626619828630,2.46351,-0.0640362,9.51359,0.00542253,0.00789165,0.0165775,-0.919652,0.254785,0.108767,0.621516,-0.100968,-0.0781435,-0.772928,-0.278833,-14.6679,-102.358
1,1626619828831,2.49213,-0.0543513,9.5089,-0.010699,-0.0124276,-0.00195354,-0.912131,0.254535,0.10702,0.621424,-0.100982,-0.0781577,-0.772998,-0.276841,-14.6703,-102.372
1,1626619829031,2.49265,-0.087239,9.50345,-0.00558496,0.0148669,-0.00764132,-0.919679,0.259977,0.113696,0.621177,-0.100863,-0.0781308,-0.773215,-0.265534,-14.6577,-102.411
1,1626619829231,2.48268,-0.0833901,9.50245,0.00996143,0.0301793,0.00887513,-0.908965,0.269284,0.107388,0.621103,-0.100987,-0.0780974,-0.773262,-0.276401,-14.6665,-102.42
1,1626619829432,2.49544,-0.0949365,9.52331,-0.00467598,0.0113279,0.000980496,-0.911663,0.264394,0.107111,0.620969,-0.100879,-0.0780087,-0.773393,-0.273763,-14.6504,-102.442
1,1626619829632,2.49649,-0.0911441,9.50787,-0.00443012,0.0101507,-0.0107139,-0.913906,0.27196,0.10939,0.620784,-0.100845,-0.0776582,-0.77358,-0.299399,-14.622,-102.469
1,1626619829833,2.49107,-0.0929979,9.49823,-0.00208914,0.020434,-0.0142217,-0.925893,0.258919,0.0910277,0.620676,-0.100723,-0.0775804,-0.77369,-0.295227,-14.6054,-102.487
1,1626619830033,2.49186,-0.0843759,9.49855,-0.000606477,-0.00137389,-0.0129014,-0.927429,0.255447,0.0712409,0.620438,-0.100673,-0.0776286,-0.773884,-0.282501,-14.6045,-102.524
1,1626619830233,2.49413,-0.0929841,9.48895,-0.00167936,-0.0203371,0.00617802,-0.933581,0.267237,0.0584533,0.620123,-0.100685,-0.0776298,-0.774134,-0.277216,-14.6058,-102.571
1,1626619830434,2.45412,-0.0466546,9.49174,0.000731647,0.0237629,0.00219494,-0.92873,0.256905,0.0514999,0.62015,-0.100655,-0.0774555,-0.774134,-0.291284,-14.5905,-102.567
1,1626619830634,2.47857,-0.077168,9.50951,0.00769943,0.00479221,-0.0140876,-0.933918,0.257246,0.0559202,0.619923,-0.10058,-0.0774699,-0.774324,-0.280052,-14.5849,-102.603
1,1626619830834,2.49194,-0.0460829,9.5286,0.00591576,-0.000499189,0.00293255,-0.945046,0.227697,0.0522783,0.619865,-0.100614,-0.0773986,-0.774373,-0.287925,-14.5828,-102.61
1,1626619831035,2.50515,-0.0880527,9.51852,0.0079602,0.0143185,-0.00516474,-0.948611,0.138157,0.0834034,0.61973,-0.100384,-0.0770311,-0.774547,-0.301502,-14.5356,-102.634
1,1626619831235,2.47723,-0.055651,9.49673,0.00479519,-0.00876635,-0.00115931,-0.937745,0.21992,0.0480208,0.619559,-0.100485,-0.0771559,-0.774659,-0.294427,-14.5538,-102.658
1,1626619831436,2.46574,-0.0854419,9.49738,-0.00147521,0.00162423,-0.00879765,-0.939205,0.252676,0.0136965,0.619515,-0.100366,-0.0769839,-0.774727,-0.300264,-14.5306,-102.666
1,1626619831637,2.49573,-0.0932129,9.47749,0.0121579,0.00872165,0.00368506,-0.969327,0.238533,-0.0799726,0.619351,-0.100269,-0.0771854,-0.77485,-0.271654,-14.5365,-102.694
1,1626619831838,2.49109,-0.0528393,9.52479,0.00521839,-8.64267e-05,-0.0116646,-0.959492,0.24082,-0.0324259,0.619085,-0.100318,-0.0770708,-0.775068,-0.280604,-14.5327,-102.732
1,1626619832038,2.50185,-0.0997545,9.53977,0.00704676,0.00656694,0.0078395,-0.938628,0.24177,-0.00592754,0.618917,-0.100231,-0.0770639,-0.775214,-0.271544,-14.5245,-102.759
1,1626619832239,2.49202,-0.095725,9.47792,0.00408143,-0.00276715,-0.0064835,-0.949995,0.259093,-0.00936597,0.61886,-0.100198,-0.076921,-0.775278,-0.280942,-14.5112,-102.768
1,1626619832439,2.46901,-0.0623421,9.47025,-0.00379235,0.00101775,0.000202656,-0.953174,0.246939,-0.00727024,0.61864,-0.100066,-0.0768718,-0.775476,-0.271373,-14.4958,-102.803
1,1626619832640,2.50239,-0.0899732,9.52233,0.00505,-0.000758469,-0.00459999,-0.960551,0.244463,-0.0104289,0.618514,-0.100059,-0.0766053,-0.775603,-0.292616,-14.476,-102.821
1,1626619832840,2.50395,-0.106687,9.51237,0.014624,0.00167042,-0.00147522,-0.945915,0.24695,-0.00413445,0.618395,-0.100179,-0.0766479,-0.775678,-0.295432,-14.49,-102.837
1,1626619833041,2.47564,-0.0635306,9.49876,0.0233978,0.00698269,-0.00300407,-0.945901,0.244354,-0.00659889,0.618237,-0.100199,-0.0766142,-0.775806,-0.296945,-14.4894,-102.86
1,1626619833241,2.48637,-0.0759049,9.49028,0.0225857,0.0120506,-0.00994504,-0.938511,0.244235,-0.00590466,0.618042,-0.10038,-0.0766767,-0.77593,-0.301048,-14.5103,-102.886
1,1626619833442,2.49527,-0.101533,9.50741,0.00347644,0.00543296,0.00701547,-0.950828,0.244434,-0.00706171,0.617941,-0.100426,-0.076548,-0.776018,-0.314242,-14.5053,-102.9
1,1626619833642,2.51298,-0.0851205,9.48435,0.000564754,0.0210315,0.00293404,-0.948117,0.246728,-0.00924897,0.617748,-0.100243,-0.0765186,-0.776198,-0.299629,-14.4867,-102.932
1,1626619833842,2.49288,-0.0856513,9.49471,0.000350177,0.00704229,-0.0226677,-0.935827,0.25172,-0.00316304,0.61767,-0.100116,-0.0765653,-0.776272,-0.284366,-14.4786,-102.946
1,1626619834043,2.48239,-0.0815533,9.48876,-0.000670552,-0.0209928,0.0141248,-0.935304,0.251197,-0.0129293,0.616864,-0.100238,-0.0767295,-0.77688,-0.263224,-14.5018,-103.065
1,1626619834243,2.43451,-0.0781664,9.20387,-0.0121579,-0.0303403,-0.00958443,-0.945419,0.251618,-0.0089718,0.615577,-0.100484,-0.0766525,-0.777877,-0.263912,-14.5189,-103.253
1,1626619834444,2.44907,-0.0529931,9.43341,0.00349581,0.0212744,-0.034456,-0.932841,0.251157,-0.0126979,0.615271,-0.100427,-0.0766122,-0.77813,-0.257544,-14.511,-103.3
1,1626619834644,2.50592,-0.0953237,9.48337,-0.00295639,-0.00026226,-0.00295341,-0.943424,0.241719,-0.00883193,0.614996,-0.10054,-0.0766125,-0.778333,-0.260658,-14.5213,-103.339
1,1626619834844,2.49388,-0.0933473,9.50297,0.0115231,-7.00355e-05,-0.0105053,-0.940609,0.249073,-0.00853187,0.614839,-0.100423,-0.0766678,-0.778466,-0.243892,-14.5147,-103.365
1,1626619835045,2.50079,-0.0694328,9.49808,-0.00595152,0.0134766,-0.017935,-0.935565,0.251458,-0.00804617,0.614504,-0.100631,-0.0767748,-0.778694,-0.243146,-14.5413,-103.412
1,1626619835245,2.50015,-0.0702369,9.49462,0.00135154,-0.0154361,-0.0255764,-0.94469,0.261216,-0.0137634,0.613976,-0.10045,-0.0765737,-0.779153,-0.238062,-14.5107,-103.493
1,1626619835446,2.48688,-0.119286,9.49203,0.0067696,-0.00541806,-0.00498593,-0.942812,0.248852,-0.0136464,0.613484,-0.100853,-0.0767213,-0.779474,-0.244962,-14.5579,-103.56
1,1626619835646,2.54454,-0.0997464,9.47593,-0.00476986,-0.0234112,-0.0105768,-0.938524,0.24683,-0.00344022,0.613251,-0.102042,-0.077381,-0.779438,-0.268164,-14.713,-103.575
1,1626619835846,2.48528,-0.14651,9.47163,0.0160098,0.0237122,0.0459924,-0.940637,0.254265,-0.00360297,0.613976,-0.102561,-0.0779672,-0.77874,-0.267165,-14.8019,-103.459
1,1626619836047,2.52979,-0.0848969,9.46369,0.00572503,-0.00917763,0.00759959,-0.935462,0.256519,-0.00555883,0.614946,-0.102346,-0.0781048,-0.777989,-0.257485,-14.7918,-103.319
1,1626619836247,2.53722,-0.0876716,9.41222,-0.0137791,0.000223517,0.00231564,-0.948041,0.256981,-0.00183275,0.616462,-0.101436,-0.0779288,-0.776925,-0.235332,-14.6964,-103.108
1,1626619836448,2.51841,-0.0849123,9.4887,0.00972003,0.0055939,-0.0107914,-0.927851,0.263925,-0.00235439,0.616216,-0.100953,-0.0776068,-0.777216,-0.224047,-14.6296,-103.153
1,1626619836648,2.50832,-0.089961,9.54318,0.0170738,0.0228986,-0.0120744,-0.930783,0.254105,-0.00267734,0.616188,-0.100339,-0.0769971,-0.777377,-0.233412,-14.5303,-103.166
1,1626619836849,2.48268,-0.0759644,9.45121,0.0137717,0.0137359,0.00892729,-0.942722,0.256508,-0.00869463,0.616072,-0.0997935,-0.076618,-0.777577,-0.225252,-14.4538,-103.192
1,1626619837049,2.52612,-0.0966551,9.41894,-0.00393689,0.00128895,-0.0259787,-0.942929,0.246387,-0.0136693,0.613703,-0.100577,-0.0767811,-0.779332,-0.223313,-14.5371,-103.533
1,1626619837249,2.49752,-0.0770078,9.49134,-0.00347793,0.00974536,0.00374764,-0.938263,0.246569,-0.00832334,0.612202,-0.101171,-0.0767986,-0.780433,-0.236908,-14.5927,-103.746
1,1626619837450,2.50932,-0.063659,9.49223,-0.00582039,-0.0154138,2.5332e-05,-0.945185,0.256548,-0.00892603,0.611852,-0.101297,-0.0767379,-0.780696,-0.245115,-14.6,-103.795
1,1626619837650,2.51172,-0.0923111,9.50843,0.010632,-0.00955015,-0.00698567,-0.955363,0.244122,-0.0148492,0.611787,-0.101294,-0.0767177,-0.78075,-0.245472,-14.5983,-103.805
1,1626619837851,2.51291,-0.111974,9.47921,-0.0181705,0.00337213,-0.0275776,-0.94319,0.246648,-0.00878616,0.611619,-0.101194,-0.0765679,-0.780909,-0.248612,-14.5786,-103.831
1,1626619838051,2.49199,-0.045397,9.50068,0.0183314,0.0026226,-0.0101417,-0.945378,0.243831,-0.0163651,0.611443,-0.101224,-0.0766804,-0.781032,-0.237185,-14.5894,-103.857
1,1626619838251,2.52463,-0.0836799,9.5008,-0.00260621,0.00494123,0.00355542,-0.950175,0.24378,-0.0192695,0.611306,-0.101237,-0.0767202,-0.781134,-0.231863,-14.5934,-103.878
1,1626619838452,2.51685,-0.0997005,9.51341,-0.0035271,0.0155374,-9.53674e-05,-0.949968,0.253901,-0.0142949,0.61108,-0.101325,-0.0766412,-0.781307,-0.241218,-14.5958,-103.909
1,1626619838652,2.51835,-0.0726156,9.48088,-0.008367,0.00880063,-0.0155136,-0.945874,0.239163,-0.0115278,0.610863,-0.101359,-0.0765543,-0.781481,-0.247591,-14.5929,-103.941
1,1626619838853,2.5006,-0.0861543,9.47842,-0.00836104,0.00599921,-0.0113964,-0.945599,0.236305,-0.0188754,0.610638,-0.101484,-0.0765605,-0.781639,-0.251892,-14.6047,-103.972
1,1626619839053,2.5044,-0.0554833,9.49068,-0.00429452,-0.00526458,-0.00147223,-0.94809,0.241537,-0.0141779,0.61054,-0.10141,-0.0763832,-0.781744,-0.260831,-14.5854,-103.987
1,1626619839253,2.50329,-0.0547674,9.48155,0.0124633,0.00328273,-0.0266537,-0.950319,0.246507,-0.0143635,0.610352,-0.10137,-0.0764791,-0.781886,-0.24555,-14.5887,-104.016
1,1626619839454,2.4882,-0.0746002,9.50765,0.0122458,0.0137389,-0.00797361,-0.940713,0.244013,-0.0110192,0.610281,-0.10158,-0.0766211,-0.7819,-0.246589,-14.6179,-104.024
1,1626619839654,2.49921,-0.0724945,9.47983,0.0096038,0.0264034,-0.00787228,-0.940479,0.248942,-0.0109734,0.61008,-0.101471,-0.0764901,-0.782084,-0.246761,-14.5987,-104.055
1,1626619839854,2.49897,-0.0507624,9.49881,0.000871718,0.00301152,0.0123918,-0.953134,0.239152,-0.0146636,0.610079,-0.101512,-0.0765126,-0.782077,-0.247679,-14.6041,-104.054
1,1626619840055,2.52521,-0.0927217,9.47967,0.00420362,0.00490695,-0.00959486,-0.943438,0.244314,-0.00636748,0.609978,-0.101459,-0.0764952,-0.782165,-0.243453,-14.598,-104.07
1,1626619840255,2.51645,-0.0807066,9.50068,0.00541061,0.00763237,0.000829995,-0.94641,0.242282,0.000702918,0.609953,-0.101395,-0.0764129,-0.7822,-0.245847,-14.5864,-104.075
1,1626619840456,2.50123,-0.0865752,9.50535,0.0160933,-0.017859,-0.00184029,-0.95058,0.246768,-0.00948039,0.609708,-0.101466,-0.0765144,-0.782372,-0.237062,-14.6001,-104.111
1,1626619840656,2.50597,-0.0720918,9.45473,-0.00228286,0.00384152,-0.0295401,-0.940947,0.239083,-0.011065,0.609407,-0.101583,-0.0764278,-0.7826,-0.247874,-14.6047,-104.153
1,1626619840856,2.48227,-0.0684489,9.52346,0.00638068,0.0138655,-0.0150666,-0.950828,0.244434,-0.00706171,0.609018,-0.101505,-0.0763388,-0.782921,-0.242906,-14.5914,-104.212
1,1626619841057,2.51811,-0.0827232,9.49151,0.00227541,-0.0136465,-0.00217259,-0.950463,0.249233,-0.00945751,0.608929,-0.101693,-0.0764571,-0.782954,-0.24412,-14.617,-104.222
1,1626619841257,2.49337,-0.0702453,9.47579,0.00701398,-0.000675023,-0.0113979,-0.943321,0.246779,-0.00634459,0.608769,-0.101693,-0.0763741,-0.783087,-0.248649,-14.6111,-104.245
1,1626619841458,2.50895,-0.0904234,9.50415,0.00324547,0.0259623,0.00804961,-0.950711,0.246899,-0.00703882,0.608829,-0.101767,-0.076218,-0.783046,-0.269575,-14.6068,-104.234
1,1626619841658,2.51737,-0.0722032,9.50014,-0.00279546,-0.000660121,-0.0051707,-0.948234,0.244263,-0.00927186,0.608609,-0.101721,-0.0762297,-0.783222,-0.260934,-14.6035,-104.268
1,1626619841858,2.49763,-0.0839711,9.50102,-7.74861e-05,0.00159442,0.0178471,-0.940843,0.244144,-0.00857764,0.608479,-0.101719,-0.0763101,-0.783316,-0.250902,-14.609,-104.288
1,1626619842059,2.51766,-0.095785,9.47959,-0.0146672,0.000236928,-0.0106677,-0.945798,0.249415,-0.00411156,0.608505,-0.101796,-0.0765277,-0.783265,-0.237103,-14.6315,-104.284
1,1626619842259,2.49418,-0.0766023,9.49274,0.00834167,0.0117078,0.0104576,-0.940713,0.244013,-0.0110192,0.608454,-0.101768,-0.0765889,-0.783302,-0.228452,-14.6333,-104.292
1,1626619842459,2.48874,-0.100541,9.47695,0.00190884,-0.00951141,-0.00513345,-0.947725,0.246336,-0.0165737,0.608325,-0.101812,-0.076702,-0.783385,-0.218828,-14.6453,-104.311
1,1626619842660,2.49799,-0.0743565,9.50241,-0.0135779,-0.000824034,-0.011608,-0.945874,0.239163,-0.0115278,0.608196,-0.101694,-0.0766313,-0.783507,-0.214198,-14.6296,-104.332
1,1626619842860,2.51391,-0.0859509,9.50363,0.00258684,0.00990182,-0.0156745,-0.953291,0.244474,-0.00729312,0.608072,-0.101721,-0.0765785,-0.783605,-0.218698,-14.6284,-104.349
1,1626619843061,2.52888,-0.0900176,9.50333,-0.00485629,0.0205353,-0.000852346,-0.945536,0.249153,-0.00899468,0.608062,-0.101643,-0.0766149,-0.783619,-0.209395,-14.6238,-104.353
1,1626619843261,2.49127,-0.0402864,9.49236,-0.00783354,-0.0137478,-0.00119507,-0.950099,0.254032,-0.0118533,0.608053,-0.101787,-0.0765809,-0.783611,-0.222912,-14.6346,-104.351
1,1626619843461,2.46967,-0.0444609,9.48123,0.00673234,0.0177979,-0.0163436,-0.949968,0.253901,-0.0142949,0.608025,-0.10183,-0.0765315,-0.783632,-0.23009,-14.635,-104.354
1,1626619843662,2.52579,-0.101478,9.51488,0.00326782,0.00148267,0.00681728,-0.945874,0.239163,-0.0115278,0.607851,-0.10181,-0.0767361,-0.78375,-0.206474,-14.6477,-104.381
1,1626619843862,2.51016,-0.0823941,9.51124,-0.00282526,-0.00591725,-0.0178829,-0.943383,0.233931,-0.0162253,0.607699,-0.101847,-0.0764066,-0.783895,-0.236552,-14.6278,-104.402
1,1626619844063,2.50316,-0.0838609,9.53195,0.00850856,0.00684559,0.0062272,-0.939997,0.256206,-0.0133463,0.607614,-0.101922,-0.0764921,-0.783943,-0.232583,-14.6407,-104.413
1,1626619844263,2.5128,-0.0821723,9.50651,0.0153705,0.0214055,0.00332743,-0.945117,0.243569,-0.0212483,0.607515,-0.102059,-0.0764395,-0.784006,-0.245536,-14.6495,-104.425
1,1626619844463,2.49882,-0.0572888,9.49361,0.0062272,0.0120044,-0.0178844,-0.940231,0.251276,-0.0133921,0.607444,-0.102051,-0.0765794,-0.784049,-0.230753,-14.6587,-104.437
1,1626619844664,2.50309,-0.0645759,9.50324,0.00767708,-0.0212833,0.00156909,-0.940217,0.248681,-0.0158566,0.607356,-0.102317,-0.0768209,-0.784059,-0.226333,-14.7001,-104.446
1,1626619844864,2.50914,-0.0823588,9.49968,-0.00351071,0.00708252,0.00429303,-0.950539,0.238981,-0.0168737,0.607406,-0.102224,-0.07684,-0.78403,-0.218773,-14.693,-104.44
1,1626619845065,2.50177,-0.0646632,9.49851,0.00453591,0.00323504,0.0102535,-0.952693,0.254203,-0.00964314,0.60755,-0.102014,-0.0768389,-0.783947,-0.206195,-14.6737,-104.423
1,1626619845265,2.47398,-0.0744793,9.52478,0.0020951,-0.0158221,-0.00875443,-0.94074,0.249204,-0.00609031,0.607489,-0.101974,-0.0769994,-0.783983,-0.187355,-14.6814,-104.434
1,1626619845466,2.52203,-0.0744122,9.53539,-0.00340492,-0.011538,-0.00125319,-0.95045,0.246637,-0.0119219,0.607439,-0.102101,-0.0769981,-0.784005,-0.195827,-14.6929,-104.439
1,1626619845666,2.50232,-0.0913968,9.47986,-0.00363439,-0.0157237,-0.0167787,-0.947621,0.251396,-0.0140863,0.607218,-0.101974,-0.07705,-0.784188,-0.177547,-14.6851,-104.474
1,1626619845866,2.5423,-0.0810108,9.48062,0.00511408,-0.0100151,-0.0321746,-0.933088,0.248823,-0.0102792,0.60712,-0.102039,-0.0772946,-0.784232,-0.157928,-14.7083,-104.489
1,1626619846067,2.49773,-0.0587215,9.4898,0.0130817,0.0129998,0.00468344,-0.952769,0.243951,-0.0170594,0.606851,-0.10205,-0.0772706,-0.784441,-0.155813,-14.7077,-104.528
1,1626619846268,2.488,-0.0648108,9.50795,-0.0105888,-0.0185385,-0.0227883,-0.94568,0.25188,-0.00408868,0.606706,-0.101934,-0.0771654,-0.784578,-0.154234,-14.6897,-104.551
1,1626619846469,2.49259,-0.0381034,9.49767,0.013724,-0.00953078,-0.00253171,-0.940465,0.246347,-0.0134379,0.606832,-0.102108,-0.077139,-0.784461,-0.171793,-14.7037,-104.529
1,1626619846669,2.47814,-0.0763313,9.51237,0.00680238,0.000844896,0.00617206,-0.94491,0.25369,-0.0162736,0.606828,-0.102041,-0.0772766,-0.784459,-0.154147,-14.7073,-104.532
1,1626619846870,2.50116,-0.074533,9.48262,0.00281483,-0.0132248,-0.0212044,-0.945406,0.249022,-0.0114362,0.60698,-0.101855,-0.0772589,-0.784368,-0.145094,-14.6891,-104.513
1,1626619847070,2.50883,-0.0815083,9.50059,-0.00208467,-0.0120044,0.00904948,-0.948468,0.239334,-0.00931763,0.607037,-0.101857,-0.0774071,-0.784308,-0.132661,-14.6997,-104.505
1,1626619847271,2.51372,-0.0702113,9.48414,-0.00149757,-0.00998229,-0.0194103,-0.945172,0.253952,-0.0113905,0.607099,-0.102125,-0.0773251,-0.784234,-0.160992,-14.7183,-104.49
1,1626619847471,2.52921,-0.0880735,9.4907,-0.00796914,-0.00387728,-0.00135154,-0.95462,0.251124,-0.0221053,0.607143,-0.102258,-0.0772261,-0.784192,-0.180704,-14.7235,-104.481
1,1626619847671,2.489,-0.0808848,9.49511,0.0104323,-0.00707209,-0.00214875,-0.945392,0.246427,-0.0139007,0.607391,-0.102372,-0.0771263,-0.783994,-0.202996,-14.7268,-104.441
1,1626619847872,2.49222,-0.0713635,9.49173,-0.012818,0.00398606,-0.0069052,-0.953395,0.239414,-0.00978045,0.607428,-0.102361,-0.0768998,-0.78399,-0.22373,-14.7097,-104.435
1,1626619848072,2.51313,-0.0854297,9.47853,0.0123337,0.00814646,-0.0182539,-0.94096,0.241679,-0.00860052,0.607455,-0.102716,-0.0769594,-0.783917,-0.244739,-14.7463,-104.424
1,1626619848273,2.52804,-0.107143,9.51742,0.00492036,0.00705123,-0.0194907,-0.950436,0.244042,-0.0143864,0.60741,-0.102779,-0.0769075,-0.783948,-0.253319,-14.7485,-104.43
1,1626619848473,2.48902,-0.0805603,9.48837,-0.00257194,-0.00984669,-0.00905842,-0.953147,0.241748,-0.0121991,0.60766,-0.102649,-0.0768671,-0.783776,-0.252245,-14.7336,-104.395
1,1626619848673,2.52766,-0.0950663,9.50811,0.0152916,-0.000524521,-0.0156015,-0.95281,0.251738,-0.00966603,0.607666,-0.102863,-0.0770883,-0.783721,-0.247756,-14.7688,-104.391
1,1626619848874,2.46454,-0.0572376,9.49234,-0.00549257,0.00280738,0.00194311,-0.94564,0.244093,-0.011482,0.607676,-0.102863,-0.0772153,-0.783701,-0.23629,-14.7778,-104.39
1,1626619849074,2.50963,-0.07473,9.49527,-0.00878424,0.00139922,-0.0174463,-0.947491,0.251265,-0.0165279,0.607735,-0.102872,-0.0771976,-0.783655,-0.239728,-14.7774,-104.381
1,1626619849275,2.50171,-0.0576849,9.5105,-0.00628531,0.00579804,0.00462681,-0.947635,0.253992,-0.0116219,0.607972,-0.102908,-0.0772331,-0.783463,-0.243661,-14.7831,-104.345
1,1626619849475,2.48199,-0.0660284,9.48968,0.00334084,0.00725091,-0.0143856,-0.948337,0.239203,-0.0117592,0.608188,-0.103064,-0.0770913,-0.783289,-0.272312,-14.7872,-104.309
1,1626619849675,2.48873,-0.0416726,9.48853,0.00549853,-0.00589937,0.00516176,-0.94019,0.243489,-0.0207855,0.608249,-0.103013,-0.0771721,-0.783241,-0.262302,-14.7882,-104.302
1,1626619849876,2.52432,-0.0906557,9.49648,-0.012736,-0.00871569,0.0224531,-0.933219,0.248953,-0.00783764,0.608458,-0.103082,-0.0769924,-0.783087,-0.287923,-14.7818,-104.268
1,1626619850076,2.49073,-0.0570143,9.52528,-0.0254765,-0.0158504,-0.0185519,-0.942812,0.248852,-0.0136464,0.608692,-0.103276,-0.0770436,-0.782875,-0.301953,-14.803,-104.23
1,1626619850277,2.52365,-0.0829198,9.49114,-0.0208005,0.00995249,0.000786781,-0.945743,0.239032,-0.0139693,0.608697,-0.103325,-0.0770862,-0.78286,-0.301795,-14.8105,-104.229
1,1626619850477,2.51914,-0.0858469,9.49394,0.0235528,-0.0106528,0.00900179,-0.950567,0.244173,-0.0119448,0.608959,-0.103404,-0.0770921,-0.782645,-0.312089,-14.818,-104.188
1,1626619850678,2.52954,-0.0909488,9.50377,0.00063777,-0.00105798,0.00680983,-0.947828,0.241275,-0.019061,0.60909,-0.10328,-0.0771298,-0.782556,-0.30207,-14.8093,-104.171
1,1626619850878,2.50759,-0.122909,9.50191,0.0154957,-0.0123367,-0.00332743,-0.935772,0.241337,-0.0130208,0.609194,-0.10334,-0.0771227,-0.782468,-0.309163,-14.8143,-104.154
1,1626619851079,2.48676,-0.0683296,9.50469,-0.0167474,0.00255406,0.0134647,-0.945144,0.248761,-0.0163194,0.609406,-0.103255,-0.0769446,-0.782332,-0.323288,-14.7937,-104.124
1,1626619851279,2.51174,-0.079738,9.4847,0.00818074,-0.00188947,-0.00439882,-0.954971,0.243729,-0.0221739,0.609553,-0.103426,-0.077066,-0.782182,-0.327631,-14.8179,-104.099
1,1626619851480,2.49839,-0.0751387,9.50051,0.0109896,0.0120699,-0.00575185,-0.945172,0.253952,-0.0113905,0.609601,-0.103445,-0.077277,-0.782122,-0.310626,-14.8346,-104.092
1,1626619851680,2.49892,-0.0839571,9.52418,0.00239015,0.00337213,-0.00361353,-0.940438,0.241155,-0.0183668,0.609689,-0.103391,-0.0772085,-0.782067,-0.31461,-14.8248,-104.08
1,1626619851880,2.50229,-0.0788899,9.4948,-0.00462681,0.0121623,-0.0237152,-0.957709,0.246626,-0.0150577,0.609641,-0.103327,-0.0771863,-0.782115,-0.31105,-14.8174,-104.088
1,1626619852081,2.50151,-0.0790053,9.49907,0.00943542,-0.0109598,0.0128567,-0.947581,0.243609,-0.0214797,0.609761,-0.103265,-0.0772147,-0.782027,-0.306124,-14.8137,-104.072
1,1626619852281,2.49414,-0.0830772,9.51449,-0.000450015,0.0131577,0.0021413,-0.949941,0.24871,-0.0192238,0.609973,-0.103205,-0.0771293,-0.781878,-0.313693,-14.8021,-104.041
1,1626619852482,2.51339,-0.0872844,9.50174,0.0175953,0.0142217,-0.00472516,-0.947855,0.246467,-0.0141321,0.609984,-0.103112,-0.0771503,-0.781879,-0.305161,-14.7951,-104.041
1,1626619852682,2.5238,-0.0849565,9.47043,0.0060916,0.00851005,-0.0032723,-0.940321,0.24362,-0.0183439,0.61009,-0.103003,-0.077181,-0.781808,-0.29633,-14.7873,-104.028
1,1626619852882,2.51254,-0.0832638,9.51657,0.00300407,-0.00402778,-0.0186652,-0.940933,0.236487,-0.0135294,0.610078,-0.103009,-0.0770361,-0.781831,-0.309819,-14.7776,-104.029
1,1626619853083,2.49092,-0.0485836,9.50409,-0.0109658,0.00592768,-0.00932664,-0.96232,0.236062,-0.0302615,0.610068,-0.102857,-0.077023,-0.78186,-0.299671,-14.7628,-104.033
1,1626619853283,2.54241,-0.0973308,9.46583,0.00610054,0.00522435,0.00244975,-0.954737,0.248659,-0.0221281,0.610086,-0.102834,-0.0772017,-0.781831,-0.281924,-14.7734,-104.031
1,1626619853484,2.48346,-0.0662627,9.50654,-0.00211746,0.00228882,-0.00423491,-0.947581,0.243609,-0.0214797,0.610062,-0.102831,-0.0773075,-0.78184,-0.271546,-14.7807,-104.036
1,1626619853684,2.50406,-0.079475,9.4981,-0.000715256,-0.0102654,0.017935,-0.944973,0.240842,-0.0261543,0.610255,-0.10281,-0.0773204,-0.781691,-0.272563,-14.7796,-104.007
1,1626619853885,2.50181,-0.0866024,9.5074,-0.000181794,0.0146955,-0.00977516,-0.955232,0.243991,-0.0172908,0.61038,-0.102801,-0.0774993,-0.781576,-0.257906,-14.7915,-103.99
1,1626619854085,2.49369,-0.0641961,9.48395,-0.00645816,0.0015527,-0.0175685,-0.95003,0.241053,-0.0241755,0.610567,-0.102838,-0.0775018,-0.781425,-0.264038,-14.795,-103.961
1,1626619854285,2.49843,-0.0692055,9.52355,-0.00427067,-0.00166893,0.00734329,-0.949198,0.255712,-0.0264798,0.610565,-0.103037,-0.0774893,-0.781402,-0.279771,-14.8121,-103.957
1,1626619854486,2.49148,-0.0585451,9.52584,0.00972003,0.00304431,0.0201672,-0.95729,0.241042,-0.0273113,0.610681,-0.102959,-0.0774987,-0.78132,-0.275455,-14.8057,-103.942
1,1626619854686,2.49706,-0.0688379,9.50089,0.00954717,-1.49012e-05,0.00489801,-0.942901,0.241195,-0.0185982,0.611117,-0.102794,-0.0775713,-0.780995,-0.265063,-14.7957,-103.88
1,1626619854887,2.53008,-0.0763111,9.47472,0.00375658,0.00543892,-0.00489503,-0.952156,0.251084,-0.0218738,0.612425,-0.102698,-0.0778268,-0.779956,-0.259948,-14.8047,-103.688
1,1626619855087,2.51419,-0.0981362,9.50464,0.00528991,-0.00317395,0.0110164,-0.952494,0.241093,-0.0244069,0.613665,-0.10279,-0.0780751,-0.778944,-0.268192,-14.8304,-103.502
1,1626619855288,2.51141,-0.0868377,9.50893,-0.0120863,0.0112623,-0.0106871,-0.946941,0.24555,-0.031223,0.614796,-0.102726,-0.0781592,-0.778051,-0.277793,-14.8302,-103.334
1,1626619855488,2.51102,-0.0837807,9.50213,-5.81145e-05,0.00801534,0.00268817,-0.950436,0.244042,-0.0143864,0.616089,-0.102683,-0.0784249,-0.777007,-0.275632,-14.845,-103.142
1,1626619855688,2.49113,-0.0678402,9.52059,0.0169814,-0.00211596,-0.0071764,-0.947581,0.243609,-0.0214797,0.617185,-0.102549,-0.0787113,-0.776126,-0.261027,-14.853,-102.982
1,1626619855889,2.51958,-0.0779852,9.49834,-1.3411e-05,0.00987649,0.00255406,-0.939722,0.253349,-0.0206939,0.618435,-0.102521,-0.0785876,-0.775146,-0.294668,-14.8411,-102.794
1,1626619856089,2.49646,-0.0595405,9.53116,-0.0117168,-0.0115484,-0.0177622,-0.940114,0.253741,-0.0133692,0.619546,-0.102401,-0.0786446,-0.774269,-0.302313,-14.834,-102.629
1,1626619856290,2.51893,-0.0938044,9.50274,0.00571012,0.00456572,0.00238419,-0.935408,0.246136,-0.0154166,0.620729,-0.10236,-0.0789023,-0.7733,-0.299072,-14.8485,-102.453
1,1626619856490,2.50052,-0.0866462,9.50829,0.00707805,0.00732094,-0.00757575,-0.943541,0.239254,-0.00885481,0.621683,-0.102288,-0.0790358,-0.772529,-0.300296,-14.8513,-102.311
1,1626619856690,2.49368,-0.0774745,9.47494,0.00437945,0.020127,-0.0167534,-0.94328,0.238992,-0.0137379,0.624081,-0.101953,-0.0793688,-0.770603,-0.292196,-14.8444,-101.957
1,1626619856891,2.49326,-0.0796056,9.50383,0.0017345,-0.0100285,-0.00715256,-0.954647,0.256315,-0.0171764,0.62373,-0.10177,-0.0792672,-0.770922,-0.280708,-14.8207,-102.013
1,1626619857091,2.49817,-0.0756687,9.49081,0.00102073,-0.00523329,-0.00938773,-0.938119,0.243842,-0.0132293,0.624757,-0.101749,-0.0794426,-0.770074,-0.283507,-14.8313,-101.859
1,1626619857292,2.50868,-0.11481,9.52118,0.0204623,0.00671446,-0.0260815,-0.950188,0.246376,-0.0168051,0.62541,-0.10171,-0.0794912,-0.769544,-0.289091,-14.8311,-101.761
1,1626619857492,2.53287,-0.0859325,9.49076,0.0117794,0.0127971,0.00185072,-0.935304,0.251197,-0.0129293,0.626578,-0.101569,-0.0797445,-0.768586,-0.278632,-14.8365,-101.588
1,1626619857693,2.47093,-0.0752378,9.4911,0.00338852,0.00704527,-0.00260323,-0.947477,0.24867,-0.0189923,0.627384,-0.101559,-0.0795665,-0.767948,-0.309831,-14.8223,-101.465
1,1626619857893,2.52471,-0.0740225,9.48286,-0.00279099,0.00701994,-0.0115141,-0.950099,0.254032,-0.0118533,0.628153,-0.101525,-0.0795022,-0.76733,-0.328202,-14.8142,-101.348
1,1626619858093,2.50859,-0.0803111,9.50882,0.00971407,0.00685304,0.00542551,-0.940114,0.253741,-0.0133692,0.629497,-0.101508,-0.0795878,-0.766222,-0.345765,-14.8184,-101.145
1,1626619858294,2.52967,-0.0671683,9.47557,-5.51343e-05,-0.00445396,-0.00118166,-0.955494,0.244253,-0.0124077,0.630332,-0.101521,-0.0796398,-0.765528,-0.358616,-14.823,-101.018
1,1626619858494,2.4958,-0.105223,9.50021,-0.0124127,0.00190884,0.00488311,-0.945275,0.248892,-0.0138778,0.631219,-0.101589,-0.0798314,-0.764768,-0.364244,-14.8427,-100.882
1,1626619858695,2.50716,-0.090404,9.49351,-0.00197142,0.00762343,-0.0148103,-0.943424,0.241719,-0.00883193,0.632034,-0.101564,-0.0796743,-0.764114,-0.392557,-14.8285,-100.757
1,1626619858895,2.50524,-0.0788451,9.49433,0.0163496,0.00201613,-0.0103489,-0.940582,0.243882,-0.0134608,0.632929,-0.101305,-0.0797603,-0.763398,-0.382863,-14.8114,-100.626
1,1626619859096,2.51493,-0.0842229,9.50987,-0.00706315,0.00207573,-0.0255123,-0.94577,0.244224,-0.00904045,0.634014,-0.101302,-0.079925,-0.76248,-0.389495,-14.8227,-100.461
1,1626619859296,2.48185,-0.0729516,9.49796,-0.010173,0.0171944,-0.00315458,-0.942915,0.243791,-0.0161337,0.634903,-0.101226,-0.0798494,-0.761758,-0.408042,-14.8099,-100.327
1,1626619859496,2.5136,-0.0890448,9.51709,0.00397414,-0.00863522,-0.00654608,-0.940596,0.246478,-0.0109963,0.636343,-0.100993,-0.0799589,-0.760575,-0.409041,-14.7966,-100.111
